*CREATOR,,,,
msr_cutter.exe,[V6.00.00],,,
msr2csv.exe,[V6.00.00],,,
,,,,
*STARTTIME,,,,
8/16/2016,13:29:46,,,
,,,,
*MODUL,,,,
NAME,MSR453630,MSR453630,MSR453630,
*NAME,,,,
NAME,165_630,165_630,165_630,
,,,,
ID,[C26118 V1.69],[C26118 V1.69],[C26118 V1.69],
,,,,
*CHANNEL,,,,
TIME,ACC x,ACC y,ACC z,200Hz
,,,,
*UNIT,,,,
,G,G,G,
,,,,
*LIMITS,,,,
ALARM,,,,
RECRD,,,,
LIMIT1,,,,
LIMIT2,,,,
,,,,
*DATA,,,,
06:27.980,0.415,-0.143,0.762,
06:27.985,0.366,-0.19,0.667,
06:27.990,0.366,-0.19,0.762,
06:27.995,0.268,-0.286,0.667,
06:28.000,0.268,-0.429,0.476,
06:28.005,0.22,-0.333,0.524,
06:28.010,0.317,-0.19,0.571,
06:28.015,0.171,-0.238,0.524,
06:28.021,0.366,-0.19,0.619,
06:28.026,0.415,-0.19,0.762,
06:28.031,0.463,-0.095,1,
06:28.036,0.366,0.048,0.952,
06:28.041,0.366,0.143,0.857,
06:28.046,0.22,0.143,0.667,
06:28.051,0.268,0.19,0.762,
06:28.056,0.366,0.143,0.905,
06:28.061,0.268,0.143,0.762,
06:28.066,0.171,0.048,0.905,
06:28.071,0.366,0,0.857,
06:28.077,0.366,-0.238,0.81,
06:28.082,0.415,-0.048,0.81,
06:28.087,0.366,-0.095,0.714,
06:28.092,0.366,-0.048,0.857,
06:28.097,0.268,-0.238,0.762,
06:28.102,0.268,-0.286,0.762,
06:28.107,0.268,-0.238,0.571,
06:28.112,0.268,-0.143,0.619,
06:28.117,0.122,-0.238,0.619,
06:28.122,0.317,-0.19,0.714,
06:28.128,0.415,-0.333,0.714,
06:28.133,0.415,-0.143,0.762,
06:28.138,0.366,-0.143,0.857,
06:28.143,0.317,0,0.619,
06:28.148,0.268,0,0.81,
06:28.153,0.268,0.143,0.81,
06:28.158,0.415,0.19,0.81,
06:28.163,0.073,0.238,0.857,
06:28.168,0.171,0.095,0.857,
06:28.173,0.317,0.143,1,
06:28.178,0.366,-0.095,0.762,
06:28.184,0.317,-0.048,0.762,
06:28.189,0.317,-0.143,0.762,
06:28.194,0.415,-0.19,0.667,
06:28.199,0.366,-0.19,0.714,
06:28.204,0.366,-0.333,0.476,
06:28.209,0.317,-0.238,0.524,
06:28.214,0.22,-0.19,0.619,
06:28.219,0.268,-0.238,0.619,
06:28.224,0.366,-0.238,0.571,
06:28.229,0.415,-0.286,0.714,
06:28.234,0.317,-0.238,0.714,
06:28.240,0.317,-0.095,0.857,
06:28.245,0.22,-0.095,0.762,
06:28.250,0.415,0.143,0.81,
06:28.255,0.122,0.048,0.714,
06:28.260,0.317,0.333,0.714,
06:28.265,0.122,0.19,0.714,
06:28.270,0.268,0.048,0.905,
06:28.275,0.317,0.19,0.81,
06:28.280,0.317,0.048,0.762,
06:28.285,0.366,0,0.81,
06:28.290,0.415,-0.095,0.762,
06:28.296,0.463,-0.143,0.667,
06:28.301,0.415,-0.143,0.667,
06:28.306,0.22,-0.381,0.476,
06:28.311,0.171,-0.286,0.333,
06:28.316,0.122,-0.19,0.524,
06:28.321,0.171,-0.143,0.619,
06:28.326,0.268,-0.238,0.571,
06:28.331,0.366,-0.19,0.667,
06:28.336,0.415,-0.238,0.619,
06:28.341,0.463,-0.238,0.81,
06:28.346,0.415,-0.095,0.762,
06:28.352,0.415,0.048,0.762,
06:28.357,0.22,0.095,0.714,
06:28.362,0.22,0.286,0.714,
06:28.367,0.317,0.238,0.905,
06:28.372,0.268,0.19,0.857,
06:28.377,0.268,0.238,0.857,
06:28.382,0.317,0.19,0.857,
06:28.387,0.22,-0.095,0.762,
06:28.392,0.366,0,0.905,
06:28.397,0.415,-0.095,0.714,
06:28.402,0.512,-0.19,0.667,
06:28.408,0.317,-0.333,0.571,
06:28.413,0.22,-0.333,0.524,
06:28.418,0.268,-0.19,0.571,
06:28.423,0.317,-0.238,0.524,
06:28.428,0.171,-0.286,0.476,
06:28.433,0.366,-0.19,0.571,
06:28.438,0.415,-0.286,0.619,
06:28.443,0.366,-0.238,0.905,
06:28.448,0.317,-0.143,0.952,
06:28.453,0.317,-0.048,0.857,
06:28.458,0.268,0.048,0.762,
06:28.464,0.317,0.048,0.857,
06:28.469,0.415,0.19,0.762,
06:28.474,0.366,0.286,0.905,
06:28.479,0.22,0.238,0.905,
06:28.484,0.22,0.238,0.905,
06:28.489,0.268,0.095,0.81,
06:28.494,0.366,0.048,0.714,
06:28.499,0.366,-0.095,0.714,
06:28.504,0.415,-0.143,0.81,
06:28.509,0.415,-0.333,0.667,
06:28.514,0.317,-0.476,0.524,
06:28.520,0.317,-0.286,0.619,
06:28.525,0.171,-0.238,0.619,
06:28.530,0.171,-0.286,0.571,
06:28.535,0.22,-0.333,0.619,
06:28.540,0.463,-0.286,0.81,
06:28.545,0.415,-0.238,0.762,
06:28.550,0.415,-0.095,1,
06:28.555,0.317,0,0.952,
06:28.560,0.415,0.19,0.81,
06:28.565,0.22,0.095,0.857,
06:28.570,0.268,0.476,0.762,
06:28.576,0.22,0.333,0.905,
06:28.581,0.22,0.095,0.857,
06:28.586,0.415,0.19,0.905,
06:28.591,0.317,0.048,0.81,
06:28.596,0.317,-0.048,0.81,
06:28.601,0.22,-0.143,0.857,
06:28.606,0.415,-0.238,0.857,
06:28.611,0.415,-0.381,0.667,
06:28.616,0.366,-0.524,0.381,
06:28.621,0.317,-0.333,0.524,
06:28.627,0.22,-0.238,0.571,
06:28.632,0.22,-0.238,0.667,
06:28.637,0.22,-0.286,0.571,
06:28.642,0.415,-0.19,0.667,
06:28.647,0.317,-0.19,0.81,
06:28.652,0.366,0,0.857,
06:28.657,0.317,0,0.952,
06:28.662,0.317,0.143,0.714,
06:28.667,0.22,0.095,0.81,
06:28.672,0.024,0.238,0.857,
06:28.677,0.366,0.333,0.857,
06:28.683,0.268,0.143,0.857,
06:28.688,0.171,0,0.762,
06:28.693,0.268,0,0.952,
06:28.698,0.171,-0.095,0.762,
06:28.703,0.415,0,1,
06:28.708,0.415,-0.048,0.762,
06:28.713,0.463,-0.143,0.571,
06:28.718,0.22,-0.286,0.476,
06:28.723,0.268,-0.333,0.381,
06:28.728,0.22,-0.238,0.667,
06:28.733,0.171,-0.238,0.429,
06:28.739,0.268,-0.238,0.619,
06:28.744,0.268,-0.19,0.381,
06:28.749,0.415,-0.286,0.667,
06:28.754,0.415,-0.286,0.714,
06:28.759,0.415,-0.19,0.619,
06:28.764,0.268,-0.19,0.762,
06:28.769,0.366,0,0.667,
06:28.774,0.171,0.048,0.762,
06:28.779,0.415,0.333,0.81,
06:28.784,0.22,0.238,0.714,
06:28.789,0.171,0.095,0.81,
06:28.795,0.122,0.143,0.667,
06:28.800,0.415,0.19,0.81,
06:28.805,0.268,0.143,0.81,
06:28.810,0.317,0.095,0.905,
06:28.815,0.317,0.048,0.667,
06:28.820,0.415,-0.19,0.667,
06:28.825,0.366,-0.333,0.524,
06:28.830,0.268,-0.381,0.429,
06:28.835,0.122,-0.095,0.476,
06:28.840,0.171,-0.143,0.524,
06:28.845,0.171,-0.238,0.524,
06:28.851,0.415,-0.238,0.476,
06:28.856,0.366,-0.286,0.619,
06:28.861,0.317,-0.143,0.667,
06:28.866,0.415,-0.095,0.905,
06:28.871,0.268,-0.048,0.762,
06:28.876,0.415,-0.048,0.905,
06:28.881,0.171,0.143,0.667,
06:28.886,0.366,0.381,0.905,
06:28.891,0.171,0.381,1,
06:28.896,0.268,0.095,0.905,
06:28.901,0.317,0.238,0.952,
06:28.907,0.268,0.095,0.81,
06:28.912,0.317,0.143,0.714,
06:28.917,0.268,-0.095,0.714,
06:28.922,0.366,-0.143,0.714,
06:28.927,0.317,-0.19,0.619,
06:28.932,0.317,-0.476,0.429,
06:28.937,0.171,-0.333,0.619,
06:28.942,0.22,-0.238,0.476,
06:28.947,0.317,-0.238,0.667,
06:28.952,0.317,-0.238,0.571,
06:28.957,0.366,-0.19,0.571,
06:28.963,0.366,-0.19,0.81,
06:28.968,0.463,-0.143,0.952,
06:28.973,0.366,0.048,1.095,
06:28.978,0.268,0.143,0.667,
06:28.983,0.171,0.143,0.762,
06:28.988,0.171,0.238,0.762,
06:28.993,0.366,0.19,0.857,
06:28.998,0.22,0.143,0.857,
06:29.003,0.22,0.143,0.81,
06:29.008,0.366,0.095,1,
06:29.013,0.22,-0.095,0.762,
06:29.019,0.317,0,0.952,
06:29.024,0.317,-0.095,0.762,
06:29.029,0.366,-0.095,0.81,
06:29.034,0.317,-0.238,0.667,
06:29.039,0.366,-0.286,0.619,
06:29.044,0.317,-0.286,0.714,
06:29.049,0.171,-0.238,0.667,
06:29.054,0.22,-0.19,0.667,
06:29.059,0.171,-0.238,0.571,
06:29.064,0.415,-0.286,0.81,
06:29.069,0.317,-0.286,0.81,
06:29.075,0.415,0,1,
06:29.080,0.22,0.095,0.905,
06:29.085,0.268,0.238,0.952,
06:29.090,0.22,0.095,0.905,
06:29.095,0.268,0.381,0.952,
06:29.100,0.22,0.238,1,
06:29.105,0.122,0.143,0.952,
06:29.110,0.317,0.238,0.905,
06:29.115,0.366,0,0.857,
06:29.120,0.366,-0.095,0.762,
06:29.125,0.268,-0.095,0.857,
06:29.131,0.317,-0.19,0.619,
06:29.136,0.366,-0.238,0.714,
06:29.141,0.268,-0.381,0.429,
06:29.146,0.268,-0.238,0.571,
06:29.151,0.122,-0.286,0.667,
06:29.156,0.22,-0.238,0.619,
06:29.161,0.317,-0.238,0.714,
06:29.166,0.415,-0.19,0.571,
06:29.171,0.366,-0.19,0.762,
06:29.176,0.366,0,0.714,
06:29.182,0.366,-0.095,0.905,
06:29.187,0.366,0.095,0.81,
06:29.192,0.317,0.143,0.857,
06:29.197,0.122,0.238,0.81,
06:29.202,0.366,0.429,0.81,
06:29.207,0.317,0.143,0.762,
06:29.212,0.22,0.095,0.857,
06:29.217,0.22,0.19,0.81,
06:29.222,0.171,0.048,0.714,
06:29.227,0.268,0.048,0.762,
06:29.232,0.366,-0.19,0.81,
06:29.238,0.463,-0.095,0.571,
06:29.243,0.22,-0.19,0.619,
06:29.248,0.268,-0.381,0.333,
06:29.253,0.268,-0.333,0.429,
06:29.258,0.22,-0.333,0.429,
06:29.263,0.22,-0.238,0.571,
06:29.268,0.268,-0.238,0.571,
06:29.273,0.415,-0.238,0.571,
06:29.278,0.366,-0.238,0.81,
06:29.283,0.366,-0.048,0.667,
06:29.288,0.268,-0.048,1,
06:29.294,0.122,0.095,0.667,
06:29.299,0.268,0.286,0.81,
06:29.304,0.171,0.333,0.857,
06:29.309,0.317,0.381,0.857,
06:29.314,0.22,0.286,0.81,
06:29.319,0.22,0.238,0.714,
06:29.324,0.415,0.095,0.857,
06:29.329,0.415,-0.095,0.857,
06:29.334,0.415,0.048,0.667,
06:29.339,0.366,-0.048,0.524,
06:29.344,0.415,-0.143,0.524,
06:29.350,0.268,-0.476,0.429,
06:29.355,0.366,-0.286,0.429,
06:29.360,0.171,-0.238,0.476,
06:29.365,0.122,-0.19,0.429,
06:29.370,0.22,-0.238,0.571,
06:29.375,0.317,-0.238,0.333,
06:29.380,0.463,-0.143,0.571,
06:29.385,0.366,-0.095,0.714,
06:29.390,0.366,0,0.714,
06:29.395,0.268,0.048,0.905,
06:29.400,0.415,0.048,0.667,
06:29.406,0.317,0.238,0.81,
06:29.411,0.268,0.476,0.81,
06:29.416,0.317,0.381,0.905,
06:29.421,0.317,0.19,0.81,
06:29.426,0.268,0.143,0.762,
06:29.431,0.268,0.095,1,
06:29.436,0.122,-0.095,0.571,
06:29.441,0.366,0.048,0.714,
06:29.446,0.317,-0.19,0.571,
06:29.451,0.415,-0.381,0.714,
06:29.456,0.268,-0.286,0.429,
06:29.462,0.268,-0.143,0.571,
06:29.467,0.171,-0.286,0.667,
06:29.472,0.415,-0.238,0.714,
06:29.477,0.317,-0.238,0.667,
06:29.482,0.317,-0.048,0.667,
06:29.487,0.317,-0.095,0.905,
06:29.492,0.317,0.048,0.905,
06:29.497,0.415,0.095,1.095,
06:29.502,0.317,0.095,0.905,
06:29.507,0.22,0.381,0.857,
06:29.512,0.122,0.333,0.905,
06:29.518,0.317,0.381,1,
06:29.523,0.317,0.095,0.952,
06:29.528,0.268,-0.048,0.952,
06:29.533,0.171,0,0.905,
06:29.538,0.268,-0.19,0.905,
06:29.543,0.22,-0.286,0.714,
06:29.548,0.366,-0.429,0.952,
06:29.553,0.317,-0.333,0.571,
06:29.558,0.268,-0.333,0.571,
06:29.563,0.22,-0.286,0.667,
06:29.568,0.415,-0.286,0.762,
06:29.574,0.268,-0.286,0.857,
06:29.579,0.317,-0.048,0.857,
06:29.584,0.22,-0.048,0.762,
06:29.589,0.268,0.19,0.905,
06:29.594,0.415,0.095,1,
06:29.599,0.268,0.143,0.952,
06:29.604,0.268,0.19,1.048,
06:29.609,0.22,0.143,0.952,
06:29.614,0.366,0.19,1,
06:29.619,0.317,0.048,0.905,
06:29.624,0.317,0.048,0.857,
06:29.630,0.122,-0.143,0.762,
06:29.635,0.268,-0.095,0.81,
06:29.640,0.366,-0.19,0.762,
06:29.645,0.415,-0.238,0.905,
06:29.650,0.317,-0.19,0.714,
06:29.655,0.22,-0.238,0.714,
06:29.660,0.268,-0.19,0.571,
06:29.665,0.366,-0.286,0.714,
06:29.670,0.268,-0.238,0.619,
06:29.675,0.366,-0.095,0.714,
06:29.681,0.22,-0.095,0.714,
06:29.686,0.317,0,0.81,
06:29.691,0.268,-0.095,0.81,
06:29.696,0.268,0.048,0.667,
06:29.701,0.317,0,0.81,
06:29.706,0.317,0.143,0.857,
06:29.711,0.317,0.095,1.095,
06:29.716,0.317,0.19,0.857,
06:29.721,0.366,0.286,0.857,
06:29.726,0.122,0.19,0.667,
06:29.731,0.366,0.048,0.714,
06:29.737,0.268,-0.143,0.619,
06:29.742,0.317,-0.143,0.524,
06:29.747,0.317,-0.095,0.619,
06:29.752,0.268,-0.143,0.619,
06:29.757,0.366,-0.238,0.476,
06:29.762,0.366,-0.333,0.476,
06:29.767,0.268,-0.286,0.429,
06:29.772,0.268,-0.286,0.429,
06:29.777,0.317,-0.19,0.476,
06:29.782,0.366,-0.19,0.476,
06:29.787,0.268,-0.143,0.571,
06:29.793,0.317,-0.048,0.714,
06:29.798,0.268,0.095,0.714,
06:29.803,0.268,0.095,0.667,
06:29.808,0.317,-0.095,0.667,
06:29.813,0.366,0.048,0.619,
06:29.818,0.366,0.095,0.857,
06:29.823,0.268,0.143,0.714,
06:29.828,0.366,0.238,0.905,
06:29.833,0.22,0.048,0.667,
06:29.838,0.317,0.095,0.619,
06:29.843,0.073,-0.048,0.524,
06:29.849,0.171,-0.048,0.524,
06:29.854,0.317,-0.143,0.619,
06:29.859,0.415,-0.19,0.714,
06:29.864,0.366,-0.143,0.476,
06:29.869,0.317,-0.19,0.571,
06:29.874,0.268,-0.143,0.571,
06:29.879,0.366,-0.19,0.524,
06:29.884,0.317,-0.238,0.524,
06:29.889,0.268,-0.238,0.571,
06:29.894,0.268,-0.19,0.571,
06:29.899,0.268,-0.19,0.571,
06:29.905,0.366,-0.048,0.571,
06:29.910,0.317,-0.048,0.714,
06:29.915,0.317,0.048,0.762,
06:29.920,0.268,0.095,0.81,
06:29.925,0.415,0.095,0.952,
06:29.930,0.366,0.19,0.905,
06:29.935,0.268,0.286,0.857,
06:29.940,0.024,0.286,0.714,
06:29.945,0.268,0.238,0.857,
06:29.950,0.366,-0.048,0.81,
06:29.955,0.366,0.048,0.762,
06:29.961,0.268,-0.048,0.762,
06:29.966,0.268,-0.095,0.714,
06:29.971,0.22,-0.238,0.667,
06:29.976,0.317,-0.333,0.714,
06:29.981,0.268,-0.286,0.571,
06:29.986,0.366,-0.238,0.476,
06:29.991,0.122,-0.238,0.571,
06:29.996,0.366,-0.238,0.762,
06:30.001,0.317,-0.238,0.762,
06:30.006,0.317,0,0.857,
06:30.011,0.122,0.095,0.667,
06:30.017,0.317,0.143,0.952,
06:30.022,0.415,0.048,0.952,
06:30.027,0.366,0.143,1.048,
06:30.032,0.366,0.19,0.952,
06:30.037,0.317,0.19,1,
06:30.042,0.22,0.19,0.952,
06:30.047,0.22,0.048,0.857,
06:30.052,0.317,0.095,0.762,
06:30.057,0.268,-0.095,0.714,
06:30.062,0.171,-0.143,0.762,
06:30.067,0.317,-0.19,0.905,
06:30.073,0.317,-0.238,0.81,
06:30.078,0.366,-0.19,0.857,
06:30.083,0.317,-0.286,0.667,
06:30.088,0.268,-0.19,0.667,
06:30.093,0.366,-0.238,0.762,
06:30.098,0.171,-0.238,0.81,
06:30.103,0.415,-0.095,0.905,
06:30.108,0.22,0.095,0.905,
06:30.113,0.366,0.19,1,
06:30.118,0.22,0.143,0.81,
06:30.123,0.22,0.238,1.048,
06:30.129,0.22,0.143,1.19,
06:30.134,0.22,0.095,0.952,
06:30.139,0.317,0,0.952,
06:30.144,0.268,0.048,0.857,
06:30.149,0.366,0.048,0.81,
06:30.154,0.171,0,0.762,
06:30.159,0.268,-0.048,0.762,
06:30.164,0.317,-0.19,0.714,
06:30.169,0.366,-0.143,0.81,
06:30.174,0.317,-0.143,0.857,
06:30.179,0.317,-0.143,0.714,
06:30.185,0.268,-0.19,0.571,
06:30.190,0.22,-0.19,0.667,
06:30.195,0.122,-0.286,0.571,
06:30.200,0.22,-0.19,0.667,
06:30.205,0.22,-0.095,0.524,
06:30.210,0.317,-0.095,0.571,
06:30.215,0.317,0,0.762,
06:30.220,0.366,0.19,0.857,
06:30.225,0.22,0.19,0.762,
06:30.230,0.22,0.19,0.619,
06:30.236,0.366,0.048,0.762,
06:30.241,0.317,0,0.714,
06:30.246,0.366,0.095,0.905,
06:30.251,0.268,0.095,0.81,
06:30.256,0.317,0.095,0.857,
06:30.261,0.268,-0.048,0.619,
06:30.266,0.366,-0.143,0.571,
06:30.271,0.22,-0.238,0.524,
06:30.276,0.268,-0.143,0.571,
06:30.281,0.317,-0.238,0.524,
06:30.286,0.366,-0.238,0.619,
06:30.292,0.415,-0.19,0.571,
06:30.297,0.317,-0.143,0.619,
06:30.302,0.171,-0.095,0.381,
06:30.307,0.366,-0.095,0.524,
06:30.312,0.317,-0.048,0.667,
06:30.317,0.415,0.048,0.762,
06:30.322,0.268,0.143,0.714,
06:30.327,0.268,0.19,0.762,
06:30.332,0.171,0.048,0.619,
06:30.337,0.268,0,0.667,
06:30.342,0.317,-0.048,0.857,
06:30.348,0.366,-0.048,0.714,
06:30.353,0.415,0,0.762,
06:30.358,0.317,-0.19,0.571,
06:30.363,0.366,-0.048,0.667,
06:30.368,0.171,-0.095,0.476,
06:30.373,0.317,-0.19,0.571,
06:30.378,0.22,-0.19,0.524,
06:30.383,0.415,-0.19,0.524,
06:30.388,0.366,-0.095,0.714,
06:30.393,0.317,-0.095,0.714,
06:30.398,0.122,0,0.524,
06:30.404,0.317,-0.048,0.571,
06:30.409,0.268,-0.143,0.667,
06:30.414,0.415,-0.19,0.762,
06:30.419,0.22,-0.143,0.571,
06:30.424,0.317,0,0.714,
06:30.429,0.268,-0.048,0.667,
06:30.434,0.317,0.095,0.857,
06:30.439,0.171,-0.095,0.619,
06:30.444,0.317,0,0.619,
06:30.449,0.268,-0.095,0.714,
06:30.454,0.415,-0.095,0.762,
06:30.460,0.366,-0.143,0.857,
06:30.465,0.317,0.048,0.762,
06:30.470,0.22,-0.048,0.857,
06:30.475,0.171,-0.048,0.762,
06:30.480,0.268,-0.143,0.714,
06:30.485,0.268,-0.095,0.714,
06:30.490,0.317,-0.143,0.714,
06:30.495,0.317,-0.143,0.762,
06:30.500,0.268,-0.19,0.952,
06:30.505,0.268,-0.143,0.952,
06:30.510,0.317,-0.048,0.762,
06:30.516,0.171,-0.095,0.714,
06:30.521,0.366,0,0.857,
06:30.526,0.317,-0.048,0.762,
06:30.531,0.415,0,0.81,
06:30.536,0.268,0.048,0.81,
06:30.541,0.22,0.048,0.762,
06:30.546,0.122,-0.048,0.81,
06:30.551,0.268,-0.19,0.762,
06:30.556,0.268,-0.19,0.905,
06:30.561,0.317,-0.19,0.81,
06:30.566,0.317,-0.143,0.905,
06:30.572,0.415,-0.143,0.81,
06:30.577,0.366,-0.19,0.81,
06:30.582,0.366,-0.048,0.857,
06:30.587,0.122,0,0.81,
06:30.592,0.171,0.19,0.952,
06:30.597,0.22,0.048,0.905,
06:30.602,0.171,0.048,1,
06:30.607,0.22,0,0.905,
06:30.612,0.268,0,0.81,
06:30.617,0.317,-0.048,0.762,
06:30.622,0.366,-0.19,0.762,
06:30.628,0.415,-0.333,0.762,
06:30.633,0.22,-0.19,0.667,
06:30.638,0.268,-0.238,0.762,
06:30.643,0.268,-0.19,0.81,
06:30.648,0.317,-0.143,0.952,
06:30.653,0.366,-0.048,0.81,
06:30.658,0.268,0.095,0.762,
06:30.663,0.317,0.095,0.857,
06:30.668,0.415,0.143,1,
06:30.673,0.366,-0.048,0.952,
06:30.678,0.317,0.095,0.81,
06:30.684,0.122,0.143,0.81,
06:30.689,0.22,0.095,0.81,
06:30.694,0.22,-0.048,0.667,
06:30.699,0.366,-0.048,0.714,
06:30.704,0.366,-0.143,0.667,
06:30.709,0.317,-0.048,0.81,
06:30.714,0.366,-0.095,0.81,
06:30.719,0.317,0,0.762,
06:30.724,0.22,-0.143,0.762,
06:30.729,0.122,-0.048,0.571,
06:30.735,0.268,-0.143,0.571,
06:30.740,0.122,-0.143,0.476,
06:30.745,0.366,-0.19,0.571,
06:30.750,0.317,-0.095,0.476,
06:30.755,0.317,0.048,0.619,
06:30.760,0.268,0,0.667,
06:30.765,0.366,-0.095,0.524,
06:30.770,0.317,-0.048,0.619,
06:30.775,0.317,0.143,0.714,
06:30.780,0.317,0.048,0.762,
06:30.785,0.366,0.19,0.81,
06:30.791,0.366,0.238,0.905,
06:30.796,0.317,0.381,0.762,
06:30.801,0.073,0.19,0.667,
06:30.806,0.22,0,0.619,
06:30.811,0.122,-0.143,0.571,
06:30.816,0.317,-0.19,0.524,
06:30.821,0.366,-0.238,0.667,
06:30.826,0.366,-0.19,0.667,
06:30.831,0.268,-0.095,0.619,
06:30.836,0.317,-0.143,0.571,
06:30.841,0.268,-0.19,0.524,
06:30.847,0.317,-0.143,0.524,
06:30.852,0.22,-0.048,0.619,
06:30.857,0.317,0.048,0.714,
06:30.862,0.317,0.095,0.714,
06:30.867,0.268,0.143,0.81,
06:30.872,0.122,0.048,0.524,
06:30.877,0.171,0.095,0.619,
06:30.882,0.366,0,0.667,
06:30.887,0.415,0,0.762,
06:30.892,0.415,-0.048,0.857,
06:30.897,0.317,0.143,0.81,
06:30.903,0.268,0.19,0.714,
06:30.908,0.171,0.048,0.714,
06:30.913,0.317,0.048,0.762,
06:30.918,0.268,-0.095,0.762,
06:30.923,0.22,-0.095,0.667,
06:30.928,0.171,-0.238,0.714,
06:30.933,0.366,-0.238,0.714,
06:30.938,0.268,-0.238,0.571,
06:30.943,0.366,-0.19,0.571,
06:30.948,0.317,-0.19,0.571,
06:30.953,0.317,-0.238,0.667,
06:30.959,0.268,-0.143,0.619,
06:30.964,0.317,-0.095,0.667,
06:30.969,0.366,0.048,1,
06:30.974,0.268,0.143,1,
06:30.979,0.268,0.19,0.905,
06:30.984,0.22,0,0.952,
06:30.989,0.366,0.095,0.952,
06:30.994,0.366,0.143,1,
06:30.999,0.317,0.048,0.762,
06:31.004,0.415,0,0.952,
06:31.009,0.122,-0.048,0.81,
06:31.015,0.171,-0.048,0.762,
06:31.020,0.073,-0.095,0.714,
06:31.025,0.171,-0.095,0.667,
06:31.030,0.268,-0.238,0.667,
06:31.035,0.366,-0.238,0.762,
06:31.040,0.317,-0.143,0.81,
06:31.045,0.22,-0.19,0.857,
06:31.050,0.268,-0.238,0.81,
06:31.055,0.317,-0.048,0.81,
06:31.060,0.415,-0.143,0.762,
06:31.065,0.268,-0.048,0.81,
06:31.071,0.366,0.095,0.905,
06:31.076,0.268,0.048,0.905,
06:31.081,0.268,0.048,0.952,
06:31.086,0.22,0,0.857,
06:31.091,0.122,-0.048,0.762,
06:31.096,0.268,-0.048,0.905,
06:31.101,0.317,-0.048,0.81,
06:31.106,0.317,-0.143,0.762,
06:31.111,0.366,0,0.81,
06:31.116,0.22,-0.048,0.905,
06:31.121,0.122,0.048,0.857,
06:31.127,0.22,-0.143,0.81,
06:31.132,0.317,-0.048,0.81,
06:31.137,0.317,-0.143,0.81,
06:31.142,0.366,-0.19,0.714,
06:31.147,0.366,-0.19,0.81,
06:31.152,0.366,-0.238,0.762,
06:31.157,0.366,-0.095,0.714,
06:31.162,0.122,-0.095,0.667,
06:31.167,0.22,-0.048,0.714,
06:31.172,0.22,-0.095,0.81,
06:31.177,0.268,-0.095,0.714,
06:31.183,0.366,0.048,0.857,
06:31.188,0.22,0.095,0.857,
06:31.193,0.268,0,0.81,
06:31.198,0.268,0,0.762,
06:31.203,0.317,-0.048,0.81,
06:31.208,0.268,0,0.81,
06:31.213,0.22,-0.19,0.81,
06:31.218,0.317,-0.143,0.714,
06:31.223,0.317,0,0.857,
06:31.228,0.22,0,0.762,
06:31.234,0.122,-0.238,0.667,
06:31.239,0.171,-0.095,0.571,
06:31.244,0.366,-0.19,0.667,
06:31.249,0.317,-0.143,0.857,
06:31.254,0.268,-0.143,0.857,
06:31.259,0.268,0,0.857,
06:31.264,0.22,0.143,0.714,
06:31.269,0.317,0.048,0.762,
06:31.274,0.366,0.095,0.619,
06:31.279,0.22,0.048,0.762,
06:31.284,0.268,0,0.571,
06:31.290,0.268,0.048,0.714,
06:31.295,0.317,-0.095,0.81,
06:31.300,0.22,-0.19,0.667,
06:31.305,0.268,-0.19,0.524,
06:31.310,0.073,-0.286,0.571,
06:31.315,0.317,-0.143,0.714,
06:31.320,0.415,-0.238,0.714,
06:31.325,0.366,-0.238,0.714,
06:31.330,0.268,0,0.714,
06:31.335,0.122,0.095,0.714,
06:31.340,0.268,0.238,0.762,
06:31.346,0.171,0.19,0.81,
06:31.351,0.073,0.238,0.714,
06:31.356,0.024,0.143,0.571,
06:31.361,0.22,0.095,0.81,
06:31.366,0.317,0,0.714,
06:31.371,0.463,-0.095,0.762,
06:31.376,0.317,-0.143,0.571,
06:31.381,0.268,-0.238,0.524,
06:31.386,0.317,-0.19,0.524,
06:31.391,0.317,-0.19,0.571,
06:31.396,0.268,-0.238,0.524,
06:31.402,0.317,-0.19,0.667,
06:31.407,0.122,-0.048,0.762,
06:31.412,0.317,0.048,0.81,
06:31.417,0.171,-0.095,0.667,
06:31.422,0.317,-0.048,0.714,
06:31.427,0.22,0,0.571,
06:31.432,0.366,0.095,0.857,
06:31.437,0.366,0.095,0.714,
06:31.442,0.317,0.143,0.905,
06:31.447,0.22,0.286,0.81,
06:31.452,0.171,0.095,0.619,
06:31.458,0.268,0.048,0.667,
06:31.463,0.171,-0.143,0.619,
06:31.468,0.317,-0.19,0.762,
06:31.473,0.22,-0.333,0.571,
06:31.478,0.317,-0.286,0.762,
06:31.483,0.171,-0.238,0.571,
06:31.488,0.22,-0.19,0.667,
06:31.493,0.268,-0.286,0.762,
06:31.498,0.317,-0.048,0.714,
06:31.503,0.22,-0.048,0.81,
06:31.508,0.366,0.143,0.905,
06:31.514,0.268,0.095,0.905,
06:31.519,0.171,0.19,0.857,
06:31.524,0.122,0,0.762,
06:31.529,0.171,-0.048,0.762,
06:31.534,0.463,0.048,0.81,
06:31.539,0.317,-0.095,0.762,
06:31.544,0.317,-0.048,0.667,
06:31.549,0.122,0,0.81,
06:31.554,0.171,0.048,0.714,
06:31.559,0.122,-0.19,0.905,
06:31.564,0.171,-0.048,0.619,
06:31.570,0.366,-0.19,0.952,
06:31.575,0.366,-0.143,0.857,
06:31.580,0.317,-0.19,0.857,
06:31.585,0.366,0,0.952,
06:31.590,0.268,0.095,0.857,
06:31.595,0.171,0.048,0.81,
06:31.600,0.22,0,0.81,
06:31.605,0.22,0.143,0.81,
06:31.610,0.268,-0.048,0.619,
06:31.615,0.268,-0.048,0.81,
06:31.620,0.268,-0.095,0.81,
06:31.626,0.268,-0.143,0.762,
06:31.631,0.317,-0.286,0.714,
06:31.636,0.317,-0.19,0.619,
06:31.641,0.268,-0.143,0.905,
06:31.646,0.268,-0.048,0.857,
06:31.651,0.317,-0.048,0.905,
06:31.656,0.317,0.286,1.095,
06:31.661,0.317,0.238,1.524,
06:31.666,0.171,0.238,0.762,
06:31.671,0.122,0,0.762,
06:31.676,0.22,-0.095,0.81,
06:31.682,0.317,0,0.762,
06:31.687,0.366,-0.095,0.905,
06:31.692,0.317,-0.048,0.667,
06:31.697,0.171,0,0.762,
06:31.702,0.22,-0.095,0.762,
06:31.707,0.268,-0.095,0.714,
06:31.712,0.22,-0.048,0.762,
06:31.717,0.268,-0.19,0.619,
06:31.722,0.317,-0.143,0.762,
06:31.727,0.366,-0.19,0.952,
06:31.732,0.22,-0.143,0.952,
06:31.738,0.268,-0.048,0.762,
06:31.743,0.122,0,0.762,
06:31.748,0.366,0,0.857,
06:31.753,0.366,0.095,0.762,
06:31.758,0.268,0.143,0.857,
06:31.763,0.22,0.286,0.857,
06:31.768,0.171,0.19,0.857,
06:31.773,0.22,0.19,0.81,
06:31.778,0.22,-0.143,0.714,
06:31.783,0.317,-0.095,0.571,
06:31.789,0.268,-0.19,0.619,
06:31.794,0.317,-0.381,0.571,
06:31.799,0.268,-0.333,0.667,
06:31.804,0.366,-0.143,0.667,
06:31.809,0.268,-0.143,0.667,
06:31.814,0.171,-0.048,0.571,
06:31.819,0.317,-0.143,0.619,
06:31.824,0.317,-0.143,0.81,
06:31.829,0.317,0,0.714,
06:31.834,0.268,0.095,0.81,
06:31.839,0.171,0.048,0.762,
06:31.845,0.317,0,0.714,
06:31.850,0.268,-0.143,0.667,
06:31.855,0.268,0.095,0.619,
06:31.860,0.268,0.095,0.619,
06:31.865,0.317,0.048,0.619,
06:31.870,0.366,0,0.667,
06:31.875,0.317,0,0.81,
06:31.880,0.171,0.238,0.667,
06:31.885,0.268,0.095,0.81,
06:31.890,0.22,0.048,0.571,
06:31.895,0.317,-0.048,0.714,
06:31.901,0.268,-0.19,0.667,
06:31.906,0.122,-0.238,0.619,
06:31.911,0.171,-0.095,0.667,
06:31.916,0.22,-0.095,0.667,
06:31.921,0.22,-0.095,0.619,
06:31.926,0.22,-0.238,0.476,
06:31.931,0.268,0.048,0.571,
06:31.936,0.317,-0.143,0.524,
06:31.941,0.366,-0.095,0.714,
06:31.946,0.366,-0.095,0.667,
06:31.951,0.268,0.048,0.762,
06:31.957,0.268,0.048,0.762,
06:31.962,0.171,-0.048,0.524,
06:31.967,0.317,-0.143,0.81,
06:31.972,0.366,0,0.762,
06:31.977,0.317,0.095,0.714,
06:31.982,0.268,0.286,0.81,
06:31.987,0.171,0.143,0.857,
06:31.992,0.317,0.143,0.857,
06:31.997,0.122,-0.048,0.714,
06:32.002,0.22,0,0.762,
06:32.007,0.22,0,0.667,
06:32.013,0.366,-0.238,0.762,
06:32.018,0.317,-0.286,0.571,
06:32.023,0.366,-0.238,0.619,
06:32.028,0.268,-0.143,0.619,
06:32.033,0.22,-0.238,0.571,
06:32.038,0.317,-0.19,0.762,
06:32.043,0.317,-0.19,0.762,
06:32.048,0.22,0,0.857,
06:32.053,0.317,0.143,0.81,
06:32.058,0.268,0.143,0.905,
06:32.063,0.317,-0.048,0.857,
06:32.069,0.22,0,0.762,
06:32.074,0.317,0.286,0.857,
06:32.079,0.317,0.143,0.81,
06:32.084,0.366,0.048,0.81,
06:32.089,0.366,-0.048,0.81,
06:32.094,0.268,0,0.952,
06:32.099,0.122,0,0.81,
06:32.104,0.122,-0.095,0.81,
06:32.109,0.171,-0.238,0.714,
06:32.114,0.268,-0.238,0.714,
06:32.119,0.366,-0.238,0.714,
06:32.125,0.22,-0.19,0.762,
06:32.130,0.268,-0.095,0.857,
06:32.135,0.268,-0.095,0.81,
06:32.140,0.22,0.048,0.81,
06:32.145,0.22,0.048,0.762,
06:32.150,0.268,0.143,0.81,
06:32.155,0.317,0.095,0.714,
06:32.160,0.415,-0.048,0.952,
06:32.165,0.366,0,0.952,
06:32.170,0.22,-0.048,0.762,
06:32.175,0.122,-0.19,0.81,
06:32.181,0.268,-0.19,0.619,
06:32.186,0.366,-0.238,0.905,
06:32.191,0.366,-0.143,0.857,
06:32.196,0.22,-0.143,0.857,
06:32.201,0.268,-0.048,0.952,
06:32.206,0.171,0.048,0.857,
06:32.211,0.22,-0.048,0.905,
06:32.216,0.22,0,0.714,
06:32.221,0.268,0,0.905,
06:32.226,0.317,0.095,0.905,
06:32.231,0.366,0,0.905,
06:32.237,0.317,0,0.714,
06:32.242,0.22,0,0.714,
06:32.247,0.171,0,0.619,
06:32.252,0.22,-0.19,0.619,
06:32.257,0.317,-0.19,0.714,
06:32.262,0.317,-0.238,0.619,
06:32.267,0.22,-0.19,0.714,
06:32.272,0.22,-0.19,0.857,
06:32.277,0.268,-0.095,0.81,
06:32.282,0.415,-0.095,0.857,
06:32.288,0.22,-0.048,0.81,
06:32.293,0.171,0,0.714,
06:32.298,0.317,0.143,0.81,
06:32.303,0.366,0.095,0.81,
06:32.308,0.366,0.143,0.81,
06:32.313,0.317,0.238,0.905,
06:32.318,0.171,0.143,0.714,
06:32.323,0.268,-0.048,0.762,
06:32.328,0.22,-0.19,0.619,
06:32.333,0.22,-0.048,0.81,
06:32.338,0.317,-0.19,0.619,
06:32.344,0.268,-0.238,0.619,
06:32.349,0.415,-0.19,0.667,
06:32.354,0.268,-0.095,0.714,
06:32.359,0.22,0,0.667,
06:32.364,0.22,-0.095,0.619,
06:32.369,0.268,-0.095,0.714,
06:32.374,0.415,-0.143,0.714,
06:32.379,0.366,0,0.81,
06:32.384,0.317,0.143,0.714,
06:32.389,0.268,0.048,0.667,
06:32.394,0.122,-0.095,0.714,
06:32.400,0.268,-0.048,0.667,
06:32.405,0.268,-0.048,0.714,
06:32.410,0.317,-0.048,0.619,
06:32.415,0.366,0,0.667,
06:32.420,0.317,0,0.81,
06:32.425,0.268,0.095,0.81,
06:32.430,0.317,0.095,0.81,
06:32.435,0.171,0,0.714,
06:32.440,0.317,-0.048,0.857,
06:32.445,0.317,-0.19,0.619,
06:32.450,0.415,-0.19,0.762,
06:32.456,0.317,-0.143,0.571,
06:32.461,0.22,-0.095,0.714,
06:32.466,0.171,-0.048,0.429,
06:32.471,0.171,-0.238,0.571,
06:32.476,0.268,-0.095,0.571,
06:32.481,0.268,-0.143,0.619,
06:32.486,0.268,0.048,0.714,
06:32.491,0.366,0.048,0.762,
06:32.496,0.268,0,0.857,
06:32.501,0.366,0,0.905,
06:32.506,0.122,-0.048,0.714,
06:32.512,0.22,0.048,0.81,
06:32.517,0.317,0.048,0.714,
06:32.522,0.415,-0.048,0.762,
06:32.527,0.317,0.095,0.857,
06:32.532,0.171,0.143,0.762,
06:32.537,0.122,0.048,0.714,
06:32.542,0.22,-0.048,0.762,
06:32.547,0.268,-0.19,0.714,
06:32.552,0.268,-0.19,0.667,
06:32.557,0.268,-0.286,0.619,
06:32.562,0.268,-0.19,0.667,
06:32.568,0.317,-0.143,0.762,
06:32.573,0.366,-0.095,0.762,
06:32.578,0.268,-0.095,0.571,
06:32.583,0.22,-0.095,0.762,
06:32.588,0.317,-0.095,0.762,
06:32.593,0.415,0,0.81,
06:32.598,0.317,-0.143,0.81,
06:32.603,0.171,0.095,0.81,
06:32.608,0.22,-0.095,0.81,
06:32.613,0.22,-0.048,0.762,
06:32.618,0.22,0,0.905,
06:32.624,0.171,0.048,0.762,
06:32.629,0.268,0.19,0.857,
06:32.634,0.171,-0.048,0.81,
06:32.639,0.268,0,0.952,
06:32.644,0.171,-0.048,0.714,
06:32.649,0.268,-0.048,0.81,
06:32.654,0.171,-0.286,0.667,
06:32.659,0.366,-0.238,0.762,
06:32.664,0.317,-0.238,0.667,
06:32.669,0.366,-0.095,0.81,
06:32.674,0.171,-0.048,0.714,
06:32.680,0.171,0,0.81,
06:32.685,0.22,-0.048,0.667,
06:32.690,0.317,-0.095,0.81,
06:32.695,0.268,0,0.81,
06:32.700,0.268,-0.048,0.714,
06:32.705,0.22,-0.048,0.905,
06:32.710,0.317,-0.143,0.857,
06:32.715,0.268,-0.143,0.81,
06:32.720,0.22,-0.143,0.857,
06:32.725,0.171,-0.048,0.714,
06:32.730,0.317,-0.048,0.857,
06:32.736,0.366,-0.095,0.762,
06:32.741,0.463,-0.048,0.667,
06:32.746,0.317,0.048,0.857,
06:32.751,0.171,0.095,0.762,
06:32.756,0.171,-0.048,0.81,
06:32.761,0.268,-0.095,0.81,
06:32.766,0.22,-0.143,0.762,
06:32.771,0.22,-0.048,0.762,
06:32.776,0.317,-0.095,0.762,
06:32.781,0.317,-0.143,0.762,
06:32.787,0.317,-0.048,0.762,
06:32.792,0.22,-0.048,0.714,
06:32.797,0.22,0.048,0.619,
06:32.802,0.171,-0.143,0.714,
06:32.807,0.268,-0.19,0.714,
06:32.812,0.317,-0.048,0.762,
06:32.817,0.268,-0.095,0.714,
06:32.822,0.268,0.048,0.762,
06:32.827,0.22,-0.19,0.762,
06:32.832,0.317,-0.19,0.762,
06:32.837,0.317,-0.19,0.762,
06:32.843,0.317,-0.095,0.81,
06:32.848,0.366,0,0.762,
06:32.853,0.317,0,0.714,
06:32.858,0.366,0.095,0.857,
06:32.863,0.171,0.095,0.762,
06:32.868,0.073,0.143,0.857,
06:32.873,0.171,-0.048,0.619,
06:32.878,0.268,-0.095,0.714,
06:32.883,0.317,-0.143,0.667,
06:32.888,0.415,-0.143,0.762,
06:32.893,0.22,-0.095,0.571,
06:32.899,0.268,-0.19,0.762,
06:32.904,0.22,-0.19,0.619,
06:32.909,0.268,-0.143,0.667,
06:32.914,0.22,-0.048,0.619,
06:32.919,0.366,-0.143,0.571,
06:32.924,0.22,-0.095,0.81,
06:32.929,0.317,-0.19,0.857,
06:32.934,0.171,-0.143,0.762,
06:32.939,0.22,-0.19,0.667,
06:32.944,0.22,-0.238,0.619,
06:32.949,0.317,-0.19,0.667,
06:32.955,0.366,-0.048,0.667,
06:32.960,0.415,0.048,0.714,
06:32.965,0.268,0.143,0.81,
06:32.970,0.22,0.238,0.952,
06:32.975,0.171,0.095,0.857,
06:32.980,0.22,0.286,0.857,
06:32.985,0.171,0.095,0.762,
06:32.990,0.268,0.048,0.667,
06:32.995,0.317,-0.238,0.714,
06:33.000,0.415,-0.286,0.81,
06:33.005,0.366,-0.238,0.667,
06:33.011,0.22,-0.143,0.619,
06:33.016,0.122,-0.19,0.571,
06:33.021,0.171,-0.333,0.524,
06:33.026,0.317,-0.238,0.524,
06:33.031,0.366,-0.19,0.571,
06:33.036,0.171,-0.19,0.667,
06:33.041,0.22,-0.143,0.762,
06:33.046,0.22,-0.143,0.714,
06:33.051,0.317,-0.143,0.762,
06:33.056,0.171,0,0.714,
06:33.061,0.268,0.095,0.81,
06:33.067,0.366,0.19,0.81,
06:33.072,0.317,0.095,0.857,
06:33.077,0.366,0.286,0.857,
06:33.082,0.073,0.19,0.857,
06:33.087,0.171,0.238,0.81,
06:33.092,0.171,-0.095,0.667,
06:33.097,0.317,-0.143,0.667,
06:33.102,0.317,-0.238,0.667,
06:33.107,0.366,-0.333,0.619,
06:33.112,0.122,-0.286,0.571,
06:33.117,0.268,-0.19,0.762,
06:33.123,0.171,-0.143,0.571,
06:33.128,0.22,-0.143,0.619,
06:33.133,0.22,-0.143,0.81,
06:33.138,0.317,-0.143,0.667,
06:33.143,0.317,0,0.762,
06:33.148,0.463,0,0.762,
06:33.153,0.22,0,0.857,
06:33.158,0.171,0,0.714,
06:33.163,0.22,-0.048,0.762,
06:33.168,0.415,0.095,0.762,
06:33.173,0.415,0.095,0.714,
06:33.179,0.268,0.048,0.762,
06:33.184,0.171,0.095,0.81,
06:33.189,0.22,0.143,1.048,
06:33.194,0.22,0.048,0.762,
06:33.199,0.268,0.095,0.952,
06:33.204,0.122,-0.143,0.81,
06:33.209,0.268,-0.19,0.714,
06:33.214,0.366,-0.333,0.619,
06:33.219,0.366,-0.19,0.667,
06:33.224,0.366,-0.048,0.667,
06:33.229,0.22,-0.19,0.619,
06:33.235,0.171,-0.143,0.524,
06:33.240,0.268,-0.143,0.714,
06:33.245,0.317,0.048,0.714,
06:33.250,0.122,0.048,0.857,
06:33.255,0.22,-0.143,0.81,
06:33.260,0.317,-0.143,0.81,
06:33.265,0.317,-0.143,0.857,
06:33.270,0.268,-0.048,0.905,
06:33.275,0.317,0.095,0.81,
06:33.280,0.22,0.095,0.762,
06:33.285,0.317,0.048,0.952,
06:33.291,0.22,0.19,0.81,
06:33.296,0.22,0.238,0.952,
06:33.301,0.122,0.143,0.857,
06:33.306,0.171,-0.048,0.905,
06:33.311,0.268,-0.333,0.714,
06:33.316,0.415,-0.333,0.524,
06:33.321,0.317,-0.333,0.524,
06:33.326,0.22,-0.238,0.619,
06:33.331,0.22,-0.143,0.667,
06:33.336,0.317,-0.19,0.857,
06:33.342,0.22,-0.143,0.857,
06:33.347,0.268,0.095,0.762,
06:33.352,0.073,0.19,0.81,
06:33.357,0.366,0.143,0.857,
06:33.362,0.366,0.048,0.952,
06:33.367,0.415,0.095,0.952,
06:33.372,0.22,0,0.857,
06:33.377,0.268,0.095,0.905,
06:33.382,0.22,-0.143,0.762,
06:33.387,0.268,-0.19,0.667,
06:33.392,0.366,-0.238,0.667,
06:33.398,0.268,-0.143,0.667,
06:33.403,0.268,-0.238,0.429,
06:33.408,0.268,-0.19,0.619,
06:33.413,0.317,-0.095,0.905,
06:33.418,0.171,-0.143,0.952,
06:33.423,0.122,0,0.714,
06:33.428,0.22,0.095,0.714,
06:33.433,0.268,-0.048,0.857,
06:33.438,0.268,-0.048,0.762,
06:33.443,0.22,0.095,0.762,
06:33.448,0.22,-0.048,0.81,
06:33.454,0.268,0.095,0.714,
06:33.459,0.415,-0.143,0.857,
06:33.464,0.317,-0.095,0.571,
06:33.469,0.171,-0.143,0.667,
06:33.474,0.22,-0.19,0.524,
06:33.479,0.268,-0.238,0.571,
06:33.484,0.268,-0.286,0.667,
06:33.489,0.22,-0.238,0.762,
06:33.494,0.22,-0.095,0.81,
06:33.499,0.268,0.095,0.81,
06:33.504,0.317,0.095,0.667,
06:33.510,0.366,0.048,0.667,
06:33.515,0.268,0.048,0.762,
06:33.520,0.22,0.238,0.857,
06:33.525,0.268,0.143,0.762,
06:33.530,0.317,-0.048,0.762,
06:33.535,0.317,-0.048,0.619,
06:33.540,0.268,-0.095,0.619,
06:33.545,0.268,-0.095,0.571,
06:33.550,0.366,-0.238,0.714,
06:33.555,0.317,-0.19,0.571,
06:33.560,0.22,-0.19,0.476,
06:33.566,0.22,-0.19,0.429,
06:33.571,0.268,-0.19,0.714,
06:33.576,0.317,-0.095,0.714,
06:33.581,0.268,0,0.762,
06:33.586,0.317,-0.095,0.667,
06:33.591,0.317,-0.048,0.619,
06:33.596,0.317,-0.143,0.619,
06:33.601,0.317,-0.143,0.714,
06:33.606,0.317,-0.143,0.714,
06:33.611,0.317,0.048,0.571,
06:33.616,0.22,0.048,0.619,
06:33.622,0.317,0.095,0.714,
06:33.627,0.317,0.143,0.81,
06:33.632,0.171,0.238,0.81,
06:33.637,0.171,0.238,0.857,
06:33.642,0.171,-0.048,0.762,
06:33.647,0.317,-0.143,0.667,
06:33.652,0.366,-0.286,0.714,
06:33.657,0.317,-0.19,0.571,
06:33.662,0.268,-0.095,0.81,
06:33.667,0.366,-0.095,0.762,
06:33.672,0.268,-0.143,0.619,
06:33.678,0.268,-0.095,0.619,
06:33.683,0.122,0,0.619,
06:33.688,0.22,-0.048,0.667,
06:33.693,0.268,-0.095,0.714,
06:33.698,0.463,-0.143,0.81,
06:33.703,0.268,-0.095,0.762,
06:33.708,0.22,-0.095,0.714,
06:33.713,0.171,-0.095,0.714,
06:33.718,0.22,-0.095,0.714,
06:33.723,0.366,0.048,0.857,
06:33.728,0.22,0.048,0.81,
06:33.734,0.268,0.286,0.81,
06:33.739,0.317,0.238,1.048,
06:33.744,0.171,0.095,0.857,
06:33.749,0.268,0.048,0.857,
06:33.754,0.073,-0.143,0.857,
06:33.759,0.22,-0.048,0.857,
06:33.764,0.415,-0.238,0.762,
06:33.769,0.366,-0.238,0.762,
06:33.774,0.22,-0.143,0.762,
06:33.779,0.171,-0.19,0.762,
06:33.784,0.22,-0.095,0.571,
06:33.790,0.317,-0.19,0.762,
06:33.795,0.317,-0.095,0.81,
06:33.800,0.171,-0.095,0.81,
06:33.805,0.268,-0.048,0.905,
06:33.810,0.268,0,0.905,
06:33.815,0.171,0,0.905,
06:33.820,0.22,-0.048,0.905,
06:33.825,0.317,0.095,0.952,
06:33.830,0.268,0.095,0.857,
06:33.835,0.317,0,0.905,
06:33.841,0.366,-0.048,0.905,
06:33.846,0.317,0.143,0.857,
06:33.851,0.171,0,0.81,
06:33.856,0.122,-0.143,0.714,
06:33.861,0.22,-0.238,0.857,
06:33.866,0.317,-0.333,0.667,
06:33.871,0.317,-0.19,0.714,
06:33.876,0.317,-0.095,0.762,
06:33.881,0.22,-0.095,0.857,
06:33.886,0.317,-0.238,0.857,
06:33.891,0.22,-0.048,0.81,
06:33.897,0.268,0,0.762,
06:33.902,0.171,-0.048,0.81,
06:33.907,0.268,-0.048,0.762,
06:33.912,0.268,0,0.857,
06:33.917,0.317,0,0.857,
06:33.922,0.22,-0.048,0.81,
06:33.927,0.268,-0.143,0.714,
06:33.932,0.22,-0.19,0.667,
06:33.937,0.317,-0.143,0.81,
06:33.942,0.317,0,0.619,
06:33.947,0.268,0.048,0.762,
06:33.953,0.268,0.095,0.714,
06:33.958,0.317,0.143,0.952,
06:33.963,0.171,0,0.905,
06:33.968,0.268,0,0.81,
06:33.973,0.268,-0.19,0.762,
06:33.978,0.317,-0.143,0.714,
06:33.983,0.415,-0.143,0.905,
06:33.988,0.463,-0.095,0.667,
06:33.993,0.268,0,0.619,
06:33.998,0.122,-0.095,0.571,
06:34.003,0.122,0,0.619,
06:34.009,0.317,0,0.619,
06:34.014,0.268,0.048,0.571,
06:34.019,0.317,0.048,0.714,
06:34.024,0.317,-0.048,0.714,
06:34.029,0.415,-0.143,0.619,
06:34.034,0.268,-0.19,0.667,
06:34.039,0.317,-0.095,0.667,
06:34.044,0.22,-0.095,0.619,
06:34.049,0.171,-0.19,0.571,
06:34.054,0.366,-0.143,0.571,
06:34.059,0.415,-0.048,0.619,
06:34.065,0.366,0.095,0.667,
06:34.070,0.317,0.143,0.81,
06:34.075,0.171,-0.048,0.762,
06:34.080,0.268,0.19,0.857,
06:34.085,0.366,0.048,0.619,
06:34.090,0.22,0.095,0.667,
06:34.095,0.268,-0.095,0.619,
06:34.100,0.366,-0.095,0.619,
06:34.105,0.317,0.048,0.571,
06:34.110,0.317,-0.095,0.667,
06:34.115,0.268,-0.048,0.619,
06:34.121,0.171,-0.143,0.571,
06:34.126,0.317,-0.143,0.571,
06:34.131,0.317,-0.143,0.667,
06:34.136,0.366,-0.143,0.619,
06:34.141,0.268,-0.143,0.619,
06:34.146,0.317,-0.143,0.524,
06:34.151,0.366,-0.143,0.667,
06:34.156,0.268,-0.095,0.619,
06:34.161,0.268,0.095,0.571,
06:34.166,0.268,0.143,0.667,
06:34.171,0.317,0.095,0.81,
06:34.177,0.463,0.143,0.81,
06:34.182,0.268,0.19,0.762,
06:34.187,0.22,0.143,0.762,
06:34.192,0.122,0.143,0.81,
06:34.197,0.268,-0.048,0.667,
06:34.202,0.415,0,0.762,
06:34.207,0.268,-0.143,0.667,
06:34.212,0.22,-0.095,0.619,
06:34.217,0.268,-0.19,0.667,
06:34.222,0.317,-0.19,0.619,
06:34.227,0.366,-0.19,0.667,
06:34.233,0.268,-0.286,0.571,
06:34.238,0.366,-0.143,0.667,
06:34.243,0.317,-0.143,0.762,
06:34.248,0.366,-0.19,0.857,
06:34.253,0.317,-0.048,0.857,
06:34.258,0.22,0,0.762,
06:34.263,0.22,0,0.81,
06:34.268,0.268,0.048,0.857,
06:34.273,0.366,0.143,0.714,
06:34.278,0.317,0.238,0.81,
06:34.283,0.22,0.333,0.762,
06:34.289,0.22,0.19,0.857,
06:34.294,0.171,0.048,0.81,
06:34.299,0.22,0.048,0.905,
06:34.304,0.171,-0.048,0.952,
06:34.309,0.073,-0.238,0.619,
06:34.314,0.366,-0.286,0.762,
06:34.319,0.415,-0.333,0.762,
06:34.324,0.366,-0.286,0.81,
06:34.329,0.268,-0.19,0.81,
06:34.334,0.22,-0.048,0.762,
06:34.339,0.268,-0.095,0.81,
06:34.345,0.22,-0.048,0.762,
06:34.350,0.171,0.048,0.857,
06:34.355,0.22,0.143,0.857,
06:34.360,0.268,0.048,0.762,
06:34.365,0.268,-0.048,0.762,
06:34.370,0.268,-0.143,0.81,
06:34.375,0.415,0,0.905,
06:34.380,0.122,0,0.81,
06:34.385,0.317,-0.048,0.714,
06:34.390,0.22,-0.048,0.81,
06:34.396,0.366,0,0.714,
06:34.401,0.268,0.095,0.905,
06:34.406,0.122,-0.048,0.762,
06:34.411,0.171,0.048,0.857,
06:34.416,0.317,-0.19,0.81,
06:34.421,0.317,-0.143,0.81,
06:34.426,0.317,-0.143,0.857,
06:34.431,0.268,-0.19,0.619,
06:34.436,0.22,-0.095,0.714,
06:34.441,0.317,-0.143,0.81,
06:34.446,0.268,-0.095,0.619,
06:34.452,0.22,-0.048,0.714,
06:34.457,0.22,-0.143,0.667,
06:34.462,0.268,0,0.857,
06:34.467,0.366,-0.143,0.81,
06:34.472,0.122,0.048,0.762,
06:34.477,0.171,0.048,0.81,
06:34.482,0.22,0,0.81,
06:34.487,0.366,-0.095,0.952,
06:34.492,0.317,0,0.667,
06:34.497,0.317,0.048,0.762,
06:34.502,0.317,0.143,0.762,
06:34.508,0.366,0.048,0.714,
06:34.513,0.22,0,0.714,
06:34.518,0.22,0,0.762,
06:34.523,0.268,0.095,0.81,
06:34.528,0.22,-0.095,0.714,
06:34.533,0.366,-0.048,0.81,
06:34.538,0.366,-0.238,0.667,
06:34.543,0.317,-0.19,0.619,
06:34.548,0.22,-0.048,0.714,
06:34.553,0.268,-0.095,0.571,
06:34.558,0.22,-0.19,0.714,
06:34.564,0.317,0,0.762,
06:34.569,0.317,-0.095,0.714,
06:34.574,0.268,0,0.81,
06:34.579,0.366,-0.095,0.762,
06:34.584,0.268,-0.048,0.81,
06:34.589,0.22,-0.143,0.619,
06:34.594,0.268,0,0.667,
06:34.599,0.22,0,0.81,
06:34.604,0.317,0,0.714,
06:34.609,0.366,-0.048,0.667,
06:34.614,0.366,0.048,0.571,
06:34.620,0.317,0.048,0.714,
06:34.625,0.171,0.048,0.81,
06:34.630,0.171,0,0.81,
06:34.635,0.22,0,0.857,
06:34.640,0.22,-0.143,0.667,
06:34.645,0.317,-0.095,0.762,
06:34.650,0.366,-0.286,0.524,
06:34.655,0.415,-0.095,0.667,
06:34.660,0.366,-0.095,0.857,
06:34.665,0.22,0.048,0.619,
06:34.670,0.171,-0.143,0.667,
06:34.676,0.171,-0.048,0.619,
06:34.681,0.268,-0.143,0.667,
06:34.686,0.415,-0.048,0.762,
06:34.691,0.317,-0.048,0.762,
06:34.696,0.22,-0.095,0.714,
06:34.701,0.171,-0.238,0.667,
06:34.706,0.268,-0.19,0.81,
06:34.711,0.268,-0.048,0.714,
06:34.716,0.317,0,0.667,
06:34.721,0.268,0.048,0.762,
06:34.726,0.415,0.095,0.762,
06:34.732,0.366,0.095,0.81,
06:34.737,0.268,0.143,0.857,
06:34.742,0.22,0.143,0.762,
06:34.747,0.268,-0.048,0.81,
06:34.752,0.268,-0.095,0.762,
06:34.757,0.317,-0.095,0.857,
06:34.762,0.268,-0.19,0.619,
06:34.767,0.22,-0.048,0.619,
06:34.772,0.22,-0.19,0.619,
06:34.777,0.317,-0.19,0.667,
06:34.782,0.268,-0.095,0.762,
06:34.788,0.171,-0.19,0.667,
06:34.793,0.22,0,0.714,
06:34.798,0.415,-0.19,0.714,
06:34.803,0.317,-0.095,0.857,
06:34.808,0.317,-0.095,0.762,
06:34.813,0.22,-0.048,0.714,
06:34.818,0.317,-0.048,0.905,
06:34.823,0.317,0.048,0.81,
06:34.828,0.317,0.048,0.81,
06:34.833,0.268,0.143,0.81,
06:34.838,0.366,0.143,0.762,
06:34.844,0.171,0.048,0.905,
06:34.849,0.268,-0.048,0.857,
06:34.854,0.22,0,0.952,
06:34.859,0.122,-0.095,0.714,
06:34.864,0.171,-0.048,0.667,
06:34.869,0.317,-0.238,0.81,
06:34.874,0.268,-0.19,0.667,
06:34.879,0.317,-0.095,0.571,
06:34.884,0.22,-0.095,0.762,
06:34.889,0.22,-0.19,0.714,
06:34.895,0.317,-0.19,0.619,
06:34.900,0.366,-0.19,0.619,
06:34.905,0.317,0,0.714,
06:34.910,0.22,-0.095,0.905,
06:34.915,0.268,-0.048,0.857,
06:34.920,0.317,0,0.857,
06:34.925,0.122,-0.048,0.714,
06:34.930,0.317,0.048,0.81,
06:34.935,0.268,0.095,0.714,
06:34.940,0.366,0.048,0.714,
06:34.945,0.415,0.143,0.714,
06:34.951,0.366,0.143,0.762,
06:34.956,0.122,0.19,0.857,
06:34.961,0.024,0,0.952,
06:34.966,0.171,-0.095,0.857,
06:34.971,0.22,-0.286,0.762,
06:34.976,0.366,-0.286,0.667,
06:34.981,0.317,-0.238,0.667,
06:34.986,0.317,-0.19,0.667,
06:34.991,0.317,-0.143,0.714,
06:34.996,0.268,-0.143,0.667,
06:35.001,0.171,-0.048,0.762,
06:35.007,0.122,0.143,0.714,
06:35.012,0.122,-0.048,0.714,
06:35.017,0.22,0.143,0.905,
06:35.022,0.317,-0.048,0.762,
06:35.027,0.317,0.095,0.667,
06:35.032,0.22,-0.19,0.762,
06:35.037,0.366,-0.143,0.714,
06:35.042,0.317,-0.143,0.857,
06:35.047,0.268,-0.19,0.619,
06:35.052,0.171,-0.095,0.571,
06:35.057,0.122,0.095,0.524,
06:35.063,0.317,0,0.762,
06:35.068,0.317,0,0.857,
06:35.073,0.171,0.048,1.048,
06:35.078,0.171,0,0.857,
06:35.083,0.171,-0.048,0.81,
06:35.088,0.366,-0.143,0.762,
06:35.093,0.366,-0.19,0.714,
06:35.098,0.268,-0.143,0.571,
06:35.103,0.22,-0.095,0.619,
06:35.108,0.268,-0.095,0.619,
06:35.113,0.317,-0.143,0.714,
06:35.119,0.317,0,0.714,
06:35.124,0.22,-0.143,0.619,
06:35.129,0.317,0,0.619,
06:35.134,0.415,-0.19,0.762,
06:35.139,0.268,-0.19,0.81,
06:35.144,0.22,-0.143,0.762,
06:35.149,0.122,0,0.762,
06:35.154,0.171,-0.048,0.762,
06:35.159,0.268,0,0.667,
06:35.164,0.317,0,0.762,
06:35.169,0.317,0.095,0.619,
06:35.175,0.317,0.143,0.762,
06:35.180,0.317,-0.048,0.762,
06:35.185,0.22,0.048,0.762,
06:35.190,0.22,-0.095,0.81,
06:35.195,0.22,-0.048,0.714,
06:35.200,0.317,-0.143,0.81,
06:35.205,0.317,-0.19,0.667,
06:35.210,0.366,-0.095,0.571,
06:35.215,0.171,-0.095,0.81,
06:35.220,0.122,-0.143,0.619,
06:35.225,0.171,-0.19,0.619,
06:35.231,0.317,-0.143,0.714,
06:35.236,0.22,-0.143,0.714,
06:35.241,0.317,-0.048,0.762,
06:35.246,0.268,0.048,0.81,
06:35.251,0.268,0.048,0.857,
06:35.256,0.268,-0.095,0.857,
06:35.261,0.317,0.048,0.81,
06:35.266,0.268,0,0.857,
06:35.271,0.317,0.095,0.667,
06:35.276,0.268,0,0.714,
06:35.281,0.366,-0.048,0.762,
06:35.287,0.268,0.048,0.762,
06:35.292,0.171,-0.095,0.857,
06:35.297,0.073,0,0.81,
06:35.302,0.268,-0.095,0.905,
06:35.307,0.22,-0.143,0.714,
06:35.312,0.317,0.048,0.857,
06:35.317,0.268,-0.048,0.714,
06:35.322,0.317,0,0.905,
06:35.327,0.366,-0.095,0.714,
06:35.332,0.317,-0.143,0.667,
06:35.337,0.22,0,0.714,
06:35.343,0.22,-0.095,0.714,
06:35.348,0.171,-0.143,0.667,
06:35.353,0.366,-0.095,0.81,
06:35.358,0.268,-0.048,0.81,
06:35.363,0.22,-0.19,0.714,
06:35.368,0.122,-0.095,0.762,
06:35.373,0.268,-0.19,0.905,
06:35.378,0.268,-0.143,0.714,
06:35.383,0.415,0.048,0.714,
06:35.388,0.22,0.048,0.714,
06:35.394,0.317,0.19,0.81,
06:35.399,0.268,0.143,0.905,
06:35.404,0.22,0.143,1.048,
06:35.409,0.171,0.143,0.952,
06:35.414,0.171,-0.048,0.857,
06:35.419,0.366,-0.048,0.762,
06:35.424,0.415,-0.19,0.905,
06:35.429,0.366,-0.286,0.619,
06:35.434,0.22,-0.143,0.81,
06:35.439,0.22,-0.19,0.619,
06:35.444,0.22,-0.238,0.619,
06:35.450,0.317,-0.143,0.619,
06:35.455,0.22,-0.19,0.571,
06:35.460,0.171,0.048,0.667,
06:35.465,0.268,-0.048,0.81,
06:35.470,0.317,0.095,0.905,
06:35.475,0.366,-0.143,0.857,
06:35.480,0.317,-0.048,0.714,
06:35.485,0.317,0,0.762,
06:35.490,0.268,0.048,0.762,
06:35.495,0.366,0,0.667,
06:35.500,0.317,0.048,0.714,
06:35.506,0.268,0,0.714,
06:35.511,0.122,0.095,0.619,
06:35.516,0.22,-0.048,0.905,
06:35.521,0.171,-0.048,0.905,
06:35.526,0.22,0,0.81,
06:35.531,0.366,0,0.714,
06:35.536,0.317,-0.048,0.714,
06:35.541,0.22,-0.238,0.667,
06:35.546,0.366,-0.095,0.667,
06:35.551,0.317,0.048,0.714,
06:35.556,0.22,-0.095,0.667,
06:35.562,0.171,-0.048,0.619,
06:35.567,0.268,-0.19,0.476,
06:35.572,0.366,-0.048,0.667,
06:35.577,0.317,-0.143,0.667,
06:35.582,0.22,-0.095,0.619,
06:35.587,0.268,-0.143,0.619,
06:35.592,0.171,-0.238,0.619,
06:35.597,0.366,0,0.857,
06:35.602,0.317,0.095,0.857,
06:35.607,0.268,0.19,0.667,
06:35.612,0.268,0.143,0.524,
06:35.618,0.415,0.048,0.81,
06:35.623,0.22,0,0.714,
06:35.628,0.268,0.19,0.952,
06:35.633,0.024,-0.048,0.762,
06:35.638,0.317,-0.048,0.81,
06:35.643,0.317,-0.19,0.571,
06:35.648,0.366,-0.143,0.667,
06:35.653,0.268,-0.19,0.476,
06:35.658,0.22,-0.143,0.571,
06:35.663,0.268,-0.143,0.571,
06:35.668,0.366,-0.238,0.667,
06:35.674,0.171,-0.095,0.571,
06:35.679,0.122,-0.095,0.571,
06:35.684,0.268,-0.048,0.714,
06:35.689,0.366,-0.095,0.81,
06:35.694,0.366,0.095,0.857,
06:35.699,0.317,0,0.714,
06:35.704,0.22,0,0.81,
06:35.709,0.366,0.095,0.905,
06:35.714,0.317,0.048,0.714,
06:35.719,0.317,0,0.619,
06:35.724,0.171,0.19,0.571,
06:35.730,0.317,0.095,0.714,
06:35.735,0.171,0,0.667,
06:35.740,0.268,-0.048,0.81,
06:35.745,0.122,-0.19,0.714,
06:35.750,0.268,-0.19,0.714,
06:35.755,0.366,-0.286,0.714,
06:35.760,0.366,-0.238,0.762,
06:35.765,0.317,-0.095,0.714,
06:35.770,0.268,-0.048,0.619,
06:35.775,0.22,-0.095,0.571,
06:35.780,0.366,-0.095,0.81,
06:35.786,0.22,0.095,0.857,
06:35.791,0.22,-0.048,0.857,
06:35.796,0.268,0.19,0.857,
06:35.801,0.317,-0.048,0.667,
06:35.806,0.317,-0.095,0.857,
06:35.811,0.317,-0.095,0.762,
06:35.816,0.268,-0.095,0.905,
06:35.821,0.22,-0.048,0.952,
06:35.826,0.268,-0.19,0.714,
06:35.831,0.366,-0.095,0.619,
06:35.836,0.366,0,0.619,
06:35.842,0.366,0.095,0.81,
06:35.847,0.171,0.048,0.762,
06:35.852,0.22,0.048,0.857,
06:35.857,0.317,-0.095,0.857,
06:35.862,0.317,-0.048,0.905,
06:35.867,0.268,0,0.81,
06:35.872,0.317,-0.048,0.762,
06:35.877,0.317,-0.095,0.81,
06:35.882,0.268,-0.095,0.81,
06:35.887,0.073,-0.095,0.762,
06:35.892,0.22,-0.048,0.714,
06:35.898,0.122,0,0.762,
06:35.903,0.317,-0.048,0.667,
06:35.908,0.317,0,0.81,
06:35.913,0.268,-0.048,0.762,
06:35.918,0.073,-0.095,0.857,
06:35.923,0.268,-0.286,0.81,
06:35.928,0.268,-0.286,0.81,
06:35.933,0.317,-0.143,0.952,
06:35.938,0.268,-0.095,0.81,
06:35.943,0.268,0,0.714,
06:35.949,0.317,0,0.667,
06:35.954,0.317,0.048,0.857,
06:35.959,0.22,0.048,0.81,
06:35.964,0.171,0.19,1,
06:35.969,0.024,0.048,0.81,
06:35.974,0.268,0,0.905,
06:35.979,0.366,-0.143,0.81,
06:35.984,0.366,-0.238,0.714,
06:35.989,0.268,-0.143,0.667,
06:35.994,0.171,-0.095,0.667,
06:35.999,0.22,-0.19,0.667,
06:36.005,0.317,-0.19,0.81,
06:36.010,0.22,-0.095,0.571,
06:36.015,0.122,-0.095,0.571,
06:36.020,0.268,-0.095,0.762,
06:36.025,0.317,-0.19,0.762,
06:36.030,0.317,-0.19,0.905,
06:36.035,0.317,-0.095,0.762,
06:36.040,0.268,-0.095,0.714,
06:36.045,0.22,-0.095,0.952,
06:36.050,0.366,0.048,0.714,
06:36.055,0.22,0.048,0.714,
06:36.061,0.366,0.238,0.571,
06:36.066,0.317,0.143,0.762,
06:36.071,0.22,-0.048,0.714,
06:36.076,0.317,0.048,0.952,
06:36.081,0.122,-0.095,0.762,
06:36.086,0.317,-0.048,0.714,
06:36.091,0.317,-0.286,0.667,
06:36.096,0.366,-0.286,0.619,
06:36.101,0.317,-0.19,0.714,
06:36.106,0.22,-0.143,0.714,
06:36.111,0.171,-0.143,0.619,
06:36.117,0.317,-0.048,0.667,
06:36.122,0.22,0,0.667,
06:36.127,0.317,-0.048,0.714,
06:36.132,0.22,0,0.857,
06:36.137,0.317,0,0.714,
06:36.142,0.268,-0.095,0.762,
06:36.147,0.366,-0.095,0.762,
06:36.152,0.268,-0.048,0.667,
06:36.157,0.317,0,0.762,
06:36.162,0.268,-0.048,0.714,
06:36.167,0.366,-0.048,0.667,
06:36.173,0.317,0.048,0.524,
06:36.178,0.366,0.048,0.714,
06:36.183,0.171,0,0.667,
06:36.188,0.268,0,0.905,
06:36.193,0.171,-0.19,0.857,
06:36.198,0.366,-0.095,0.81,
06:36.203,0.317,-0.143,0.762,
06:36.208,0.268,-0.143,0.667,
06:36.213,0.366,-0.048,0.619,
06:36.218,0.366,-0.19,0.714,
06:36.223,0.268,-0.048,0.714,
06:36.229,0.122,-0.095,0.667,
06:36.234,0.122,0,0.762,
06:36.239,0.268,-0.095,0.762,
06:36.244,0.366,0,0.857,
06:36.249,0.317,0,0.619,
06:36.254,0.171,-0.143,0.762,
06:36.259,0.22,-0.238,0.714,
06:36.264,0.317,-0.238,0.714,
06:36.269,0.317,-0.095,0.762,
06:36.274,0.317,0,0.667,
06:36.279,0.171,0,0.571,
06:36.285,0.317,0,0.714,
06:36.290,0.415,0.095,0.81,
06:36.295,0.268,0.143,0.81,
06:36.300,0.22,0.143,0.952,
06:36.305,0.171,-0.048,0.857,
06:36.310,0.317,-0.095,0.905,
06:36.315,0.317,-0.095,0.81,
06:36.320,0.317,-0.143,0.667,
06:36.325,0.22,-0.095,0.714,
06:36.330,0.268,-0.143,0.619,
06:36.335,0.171,-0.143,0.619,
06:36.341,0.317,-0.095,0.762,
06:36.346,0.122,-0.143,0.571,
06:36.351,0.317,-0.048,0.762,
06:36.356,0.317,-0.095,0.81,
06:36.361,0.415,-0.095,0.81,
06:36.366,0.268,-0.143,0.81,
06:36.371,0.268,-0.143,0.762,
06:36.376,0.22,-0.048,0.81,
06:36.381,0.366,-0.048,0.857,
06:36.386,0.317,0,0.762,
06:36.391,0.268,0.048,0.619,
06:36.397,0.171,0.238,0.714,
06:36.402,0.317,0.238,0.81,
06:36.407,0.268,0.095,0.81,
06:36.412,0.22,0,0.952,
06:36.417,0.122,-0.095,0.857,
06:36.422,0.268,-0.048,0.857,
06:36.427,0.268,-0.238,0.81,
06:36.432,0.366,-0.19,0.714,
06:36.437,0.317,-0.19,0.619,
06:36.442,0.317,-0.143,0.762,
06:36.448,0.171,-0.19,0.714,
06:36.453,0.268,-0.143,0.81,
06:36.458,0.171,-0.048,0.81,
06:36.463,0.268,0.048,0.81,
06:36.468,0.22,0.048,0.952,
06:36.473,0.268,0,0.667,
06:36.478,0.366,-0.143,0.857,
06:36.483,0.317,-0.095,0.762,
06:36.488,0.317,0,0.857,
06:36.493,0.22,0,0.81,
06:36.498,0.317,-0.095,0.762,
06:36.504,0.366,-0.048,0.571,
06:36.509,0.366,0,0.619,
06:36.514,0.22,0.095,0.714,
06:36.519,0.22,0,0.714,
06:36.524,0.317,-0.048,0.952,
06:36.529,0.268,-0.095,0.81,
06:36.534,0.366,-0.048,0.81,
06:36.539,0.22,-0.095,0.762,
06:36.544,0.22,-0.095,0.667,
06:36.549,0.317,-0.095,0.762,
06:36.554,0.415,-0.143,0.762,
06:36.560,0.171,-0.048,0.619,
06:36.565,0.171,-0.048,0.667,
06:36.570,0.171,0.048,0.667,
06:36.575,0.415,0,0.619,
06:36.580,0.415,-0.143,0.714,
06:36.585,0.268,-0.143,0.571,
06:36.590,0.268,-0.143,0.714,
06:36.595,0.317,-0.143,0.714,
06:36.600,0.317,-0.143,0.762,
06:36.605,0.366,-0.143,0.81,
06:36.610,0.22,0.048,0.857,
06:36.616,0.171,0.19,0.762,
06:36.621,0.317,0.19,0.714,
06:36.626,0.317,0.19,0.857,
06:36.631,0.171,0.143,0.762,
06:36.636,0.268,0,0.905,
06:36.641,0.122,-0.095,0.762,
06:36.646,0.366,-0.095,0.714,
06:36.651,0.366,-0.238,0.619,
06:36.656,0.366,-0.19,0.571,
06:36.661,0.22,-0.143,0.524,
06:36.666,0.268,-0.19,0.571,
06:36.672,0.317,-0.238,0.524,
06:36.677,0.366,-0.143,0.667,
06:36.682,0.122,-0.048,0.667,
06:36.687,0.171,0,0.762,
06:36.692,0.22,0,0.81,
06:36.697,0.366,-0.048,0.667,
06:36.702,0.22,-0.048,0.81,
06:36.707,0.22,-0.19,0.619,
06:36.712,0.268,-0.095,0.762,
06:36.717,0.317,-0.048,0.81,
06:36.722,0.415,0,0.81,
06:36.728,0.171,0,0.619,
06:36.733,0.317,0.143,0.476,
06:36.738,0.171,0.095,0.714,
06:36.743,0.268,-0.048,0.714,
06:36.748,0.366,-0.048,1,
06:36.753,0.073,-0.048,0.762,
06:36.758,0.122,-0.048,0.714,
06:36.763,0.22,-0.19,0.81,
06:36.768,0.366,-0.238,0.714,
06:36.773,0.317,-0.143,0.619,
06:36.778,0.268,-0.238,0.667,
06:36.784,0.122,-0.095,0.667,
06:36.789,0.366,-0.095,0.762,
06:36.794,0.171,-0.095,0.762,
06:36.799,0.317,0.095,0.762,
06:36.804,0.22,0.143,0.81,
06:36.809,0.268,0.095,0.619,
06:36.814,0.268,-0.143,0.81,
06:36.819,0.268,-0.238,0.714,
06:36.824,0.22,-0.19,0.714,
06:36.829,0.171,-0.095,0.714,
06:36.834,0.268,-0.19,0.762,
06:36.840,0.268,-0.19,0.619,
06:36.845,0.415,0,0.667,
06:36.850,0.268,0.19,0.81,
06:36.855,0.22,0.143,0.81,
06:36.860,0.22,0.095,1.048,
06:36.865,0.171,0,0.857,
06:36.870,0.22,0.095,0.857,
06:36.875,0.268,-0.048,0.81,
06:36.880,0.317,-0.095,0.667,
06:36.885,0.268,-0.19,0.619,
06:36.890,0.366,-0.238,0.619,
06:36.896,0.268,-0.143,0.619,
06:36.901,0.22,-0.143,0.762,
06:36.906,0.171,-0.19,0.667,
06:36.911,0.317,-0.143,0.905,
06:36.916,0.317,-0.048,0.952,
06:36.921,0.268,0.095,0.857,
06:36.926,0.171,0,0.857,
06:36.931,0.317,-0.048,0.714,
06:36.936,0.317,-0.048,0.905,
06:36.941,0.317,0,0.905,
06:36.946,0.366,0.143,0.857,
06:36.952,0.22,0,0.762,
06:36.957,0.268,0,0.667,
06:36.962,0.366,0.048,0.905,
06:36.967,0.268,-0.095,0.667,
06:36.972,0.171,-0.048,0.905,
06:36.977,0.122,-0.095,0.714,
06:36.982,0.366,-0.095,0.952,
06:36.987,0.366,-0.286,0.81,
06:36.992,0.22,-0.095,0.81,
06:36.997,0.22,0,0.762,
06:37.003,0.366,-0.143,0.905,
06:37.008,0.22,-0.19,0.762,
06:37.013,0.317,0.048,0.714,
06:37.018,0.122,0.048,0.762,
06:37.023,0.268,0.095,0.81,
06:37.028,0.317,-0.048,0.905,
06:37.033,0.366,-0.19,0.81,
06:37.038,0.268,-0.143,0.762,
06:37.043,0.268,-0.095,0.667,
06:37.048,0.22,-0.095,0.714,
06:37.053,0.171,-0.238,0.857,
06:37.059,0.317,-0.048,0.762,
06:37.064,0.22,0,0.81,
06:37.069,0.268,0.048,0.667,
06:37.074,0.317,0.238,0.857,
06:37.079,0.22,-0.048,0.857,
06:37.084,0.268,-0.095,1,
06:37.089,0.22,0,0.857,
06:37.094,0.317,0.048,0.857,
06:37.099,0.366,-0.19,0.762,
06:37.104,0.317,-0.19,0.714,
06:37.109,0.317,-0.095,0.667,
06:37.115,0.22,-0.143,0.619,
06:37.120,0.268,-0.143,0.667,
06:37.125,0.22,-0.143,0.667,
06:37.130,0.171,0,0.667,
06:37.135,0.22,0.048,0.667,
06:37.140,0.122,-0.143,0.81,
06:37.145,0.171,-0.19,0.667,
06:37.150,0.268,-0.19,0.714,
06:37.155,0.415,-0.19,0.714,
06:37.160,0.366,-0.095,0.619,
06:37.165,0.22,-0.095,0.714,
06:37.171,0.317,0.048,0.762,
06:37.176,0.268,-0.095,0.81,
06:37.181,0.317,0,0.476,
06:37.186,0.268,0.095,0.619,
06:37.191,0.171,0.095,0.762,
06:37.196,0.317,0.095,0.762,
06:37.201,0.268,-0.048,0.952,
06:37.206,0.22,-0.095,0.667,
06:37.211,0.171,-0.095,0.762,
06:37.216,0.22,-0.238,0.714,
06:37.221,0.366,-0.143,0.714,
06:37.227,0.268,-0.238,0.714,
06:37.232,0.22,-0.19,0.619,
06:37.237,0.22,-0.095,0.619,
06:37.242,0.171,-0.095,0.667,
06:37.247,0.317,0,0.571,
06:37.252,0.366,-0.048,0.857,
06:37.257,0.366,-0.048,0.762,
06:37.262,0.268,-0.048,0.762,
06:37.267,0.22,-0.19,0.571,
06:37.272,0.22,-0.095,0.762,
06:37.277,0.268,-0.048,0.714,
06:37.283,0.268,-0.048,0.619,
06:37.288,0.22,0,0.667,
06:37.293,0.317,0.095,0.714,
06:37.298,0.366,0.048,0.762,
06:37.303,0.268,0.143,0.714,
06:37.308,0.22,0.095,0.81,
06:37.313,0.22,0.048,0.857,
06:37.318,0.268,-0.048,0.762,
06:37.323,0.415,0,0.857,
06:37.328,0.268,-0.143,0.667,
06:37.333,0.22,-0.048,0.619,
06:37.339,0.073,-0.19,0.667,
06:37.344,0.366,-0.19,0.667,
06:37.349,0.366,-0.095,0.667,
06:37.354,0.22,-0.143,0.619,
06:37.359,0.22,-0.095,0.571,
06:37.364,0.171,-0.095,0.762,
06:37.369,0.366,-0.095,0.857,
06:37.374,0.22,-0.095,0.714,
06:37.379,0.268,0.048,0.714,
06:37.384,0.171,-0.095,0.619,
06:37.389,0.366,-0.095,0.762,
06:37.395,0.366,0,0.762,
06:37.400,0.366,0,0.762,
06:37.405,0.22,0.095,0.714,
06:37.410,0.366,0.238,0.81,
06:37.415,0.317,0.095,0.857,
06:37.420,0.22,0.048,0.762,
06:37.425,0.171,0.048,1,
06:37.430,0.122,0,0.762,
06:37.435,0.22,-0.048,0.905,
06:37.440,0.366,-0.238,0.81,
06:37.445,0.22,-0.095,0.667,
06:37.451,0.22,-0.19,0.476,
06:37.456,0.366,-0.048,0.714,
06:37.461,0.22,-0.19,0.762,
06:37.466,0.317,-0.095,0.762,
06:37.471,0.171,-0.095,0.667,
06:37.476,0.317,0.095,0.857,
06:37.481,0.22,-0.048,0.762,
06:37.486,0.317,-0.143,0.714,
06:37.491,0.317,-0.143,0.667,
06:37.496,0.317,-0.048,0.762,
06:37.502,0.22,0.048,0.81,
06:37.507,0.171,0.048,0.905,
06:37.512,0.268,0,0.81,
06:37.517,0.122,0,0.667,
06:37.522,0.317,0.238,0.619,
06:37.527,0.171,0.19,0.81,
06:37.532,0.268,0,0.762,
06:37.537,0.366,-0.095,0.905,
06:37.542,0.317,-0.095,0.905,
06:37.547,0.366,-0.19,0.714,
06:37.552,0.268,-0.238,0.81,
06:37.558,0.366,-0.095,0.667,
06:37.563,0.268,-0.238,0.714,
06:37.568,0.268,-0.238,0.667,
06:37.573,0.171,-0.143,0.667,
06:37.578,0.317,-0.048,0.857,
06:37.583,0.268,-0.048,0.667,
06:37.588,0.268,0.048,0.905,
06:37.593,0.268,-0.048,0.81,
06:37.598,0.22,0.143,0.762,
06:37.603,0.22,0,0.714,
06:37.608,0.317,0.048,0.714,
06:37.614,0.415,-0.048,0.81,
06:37.619,0.317,0,0.714,
06:37.624,0.366,-0.095,0.714,
06:37.629,0.268,-0.048,0.571,
06:37.634,0.317,-0.143,0.667,
06:37.639,0.268,-0.095,0.667,
06:37.644,0.171,-0.19,0.619,
06:37.649,0.268,-0.19,0.762,
06:37.654,0.317,-0.19,0.81,
06:37.659,0.317,-0.048,0.905,
06:37.664,0.317,-0.048,0.762,
06:37.670,0.171,-0.095,0.619,
06:37.675,0.268,-0.048,0.667,
06:37.680,0.415,-0.048,0.762,
06:37.685,0.317,0,0.762,
06:37.690,0.22,0.095,0.762,
06:37.695,0.171,0.048,0.619,
06:37.700,0.268,-0.048,0.762,
06:37.705,0.268,-0.143,0.714,
06:37.710,0.317,-0.143,0.619,
06:37.715,0.22,-0.095,0.667,
06:37.720,0.268,-0.238,0.571,
06:37.726,0.366,-0.238,0.571,
06:37.731,0.268,-0.19,0.571,
06:37.736,0.366,-0.095,0.619,
06:37.741,0.171,0,0.619,
06:37.746,0.268,0.095,0.619,
06:37.751,0.366,0.286,0.905,
06:37.756,0.317,0.095,0.714,
06:37.761,0.171,0.19,0.714,
06:37.766,0.22,0.143,0.762,
06:37.771,0.268,-0.048,0.905,
06:37.776,0.415,0,0.905,
06:37.782,0.268,-0.19,0.81,
06:37.787,0.317,-0.095,0.619,
06:37.792,0.22,-0.143,0.571,
06:37.797,0.171,-0.143,0.571,
06:37.802,0.268,-0.238,0.571,
06:37.807,0.122,-0.19,0.667,
06:37.812,0.22,-0.095,0.571,
06:37.817,0.122,-0.143,0.714,
06:37.822,0.366,-0.143,0.667,
06:37.827,0.366,-0.143,0.714,
06:37.832,0.366,-0.143,0.667,
06:37.838,0.366,0,0.714,
06:37.843,0.317,0,0.81,
06:37.848,0.366,0.095,0.81,
06:37.853,0.317,0.143,0.857,
06:37.858,0.317,0.238,0.619,
06:37.863,0.171,0.286,0.762,
06:37.868,0.268,0.095,0.762,
06:37.873,0.22,0,0.857,
06:37.878,0.171,-0.095,0.857,
06:37.883,0.122,-0.095,0.714,
06:37.888,0.22,-0.143,0.762,
06:37.894,0.317,-0.238,0.619,
06:37.899,0.317,-0.19,0.667,
06:37.904,0.317,-0.143,0.619,
06:37.909,0.317,-0.048,0.571,
06:37.914,0.268,-0.143,0.667,
06:37.919,0.317,-0.095,0.762,
06:37.924,0.268,0,0.667,
06:37.929,0.22,0.048,0.857,
06:37.934,0.317,0.095,0.857,
06:37.939,0.22,-0.048,0.857,
06:37.944,0.317,-0.095,0.714,
06:37.950,0.366,0.048,0.762,
06:37.955,0.22,0,0.81,
06:37.960,0.317,0.048,0.81,
06:37.965,0.317,-0.048,0.762,
06:37.970,0.317,-0.095,0.619,
06:37.975,0.268,0.048,0.81,
06:37.980,0.171,0.095,0.762,
06:37.985,0.268,0.048,0.857,
06:37.990,0.22,-0.095,0.905,
06:37.995,0.22,-0.143,0.857,
06:38.000,0.268,-0.095,0.857,
06:38.006,0.22,-0.143,0.667,
06:38.011,0.22,-0.095,0.714,
06:38.016,0.366,-0.238,0.714,
06:38.021,0.366,-0.048,0.619,
06:38.026,0.268,-0.095,0.762,
06:38.031,0.22,-0.048,0.857,
06:38.036,0.171,-0.095,0.81,
06:38.041,0.122,0,0.81,
06:38.046,0.268,-0.048,0.81,
06:38.051,0.268,0.143,0.762,
06:38.057,0.22,-0.048,0.857,
06:38.062,0.317,-0.143,0.81,
06:38.067,0.415,-0.048,0.81,
06:38.072,0.268,-0.048,0.81,
06:38.077,0.268,0,0.714,
06:38.082,0.171,-0.048,0.619,
06:38.087,0.317,-0.048,0.762,
06:38.092,0.268,-0.048,0.762,
06:38.097,0.171,-0.048,0.81,
06:38.102,0.171,0,0.81,
06:38.107,0.073,-0.095,0.857,
06:38.113,0.366,-0.095,0.857,
06:38.118,0.268,-0.238,0.81,
06:38.123,0.268,-0.095,0.571,
06:38.128,0.22,-0.095,0.667,
06:38.133,0.366,0,0.667,
06:38.138,0.317,-0.143,0.714,
06:38.143,0.317,-0.095,0.714,
06:38.148,0.171,0.048,0.667,
06:38.153,0.22,0.048,0.714,
06:38.158,0.366,-0.143,0.762,
06:38.163,0.317,-0.095,0.714,
06:38.169,0.317,-0.095,0.667,
06:38.174,0.22,-0.095,0.667,
06:38.179,0.268,-0.143,0.667,
06:38.184,0.22,-0.238,0.619,
06:38.189,0.317,-0.19,0.667,
06:38.194,0.22,-0.048,0.619,
06:38.199,0.268,0.095,0.619,
06:38.204,0.171,0.19,0.81,
06:38.209,0.366,0,0.81,
06:38.214,0.268,0.095,0.762,
06:38.219,0.171,0.095,0.905,
06:38.225,0.073,0.048,0.762,
06:38.230,0.317,0,0.857,
06:38.235,0.268,-0.19,0.667,
06:38.240,0.366,-0.19,0.667,
06:38.245,0.22,-0.143,0.619,
06:38.250,0.268,-0.19,0.571,
06:38.255,0.22,-0.238,0.714,
06:38.260,0.366,-0.143,0.667,
06:38.265,0.122,-0.095,0.619,
06:38.270,0.171,-0.143,0.762,
06:38.275,0.22,-0.048,0.714,
06:38.281,0.268,-0.095,0.714,
06:38.286,0.317,-0.048,0.714,
06:38.291,0.317,0,0.762,
06:38.296,0.22,-0.048,0.714,
06:38.301,0.317,0,0.81,
06:38.306,0.268,-0.095,0.619,
06:38.311,0.317,0.048,0.667,
06:38.316,0.122,0.143,0.667,
06:38.321,0.268,0.143,0.762,
06:38.326,0.22,0.095,0.81,
06:38.331,0.317,0.048,0.857,
06:38.337,0.22,0,0.762,
06:38.342,0.268,-0.095,0.762,
06:38.347,0.22,-0.286,0.571,
06:38.352,0.366,-0.19,0.667,
06:38.357,0.317,-0.19,0.714,
06:38.362,0.317,-0.095,0.667,
06:38.367,0.268,-0.143,0.667,
06:38.372,0.22,-0.143,0.667,
06:38.377,0.22,-0.048,0.714,
06:38.382,0.22,-0.143,0.81,
06:38.387,0.268,0.095,0.762,
06:38.393,0.317,0,0.762,
06:38.398,0.317,-0.095,0.762,
06:38.403,0.415,-0.048,0.762,
06:38.408,0.268,-0.048,0.857,
06:38.413,0.22,0.048,0.762,
06:38.418,0.122,-0.143,0.667,
06:38.423,0.366,0,0.667,
06:38.428,0.317,0.095,0.857,
06:38.433,0.22,0.048,0.667,
06:38.438,0.171,0.095,0.857,
06:38.443,0.22,-0.048,0.81,
06:38.449,0.22,-0.143,0.857,
06:38.454,0.366,-0.095,0.905,
06:38.459,0.268,-0.095,0.81,
06:38.464,0.268,-0.048,0.81,
06:38.469,0.366,-0.19,0.762,
06:38.474,0.171,-0.143,0.667,
06:38.479,0.317,-0.095,0.762,
06:38.484,0.22,0,0.667,
06:38.489,0.22,-0.048,0.762,
06:38.494,0.268,-0.143,0.857,
06:38.499,0.317,0,0.762,
06:38.505,0.22,-0.048,0.857,
06:38.510,0.268,0,0.714,
06:38.515,0.366,-0.143,0.714,
06:38.520,0.317,-0.143,0.857,
06:38.525,0.366,0,0.714,
06:38.530,0.171,0,0.857,
06:38.535,0.22,0.143,0.619,
06:38.540,0.22,0.095,0.81,
06:38.545,0.268,0,0.714,
06:38.550,0.22,-0.048,0.81,
06:38.556,0.171,0,0.857,
06:38.561,0.171,-0.095,0.952,
06:38.566,0.366,-0.238,0.762,
06:38.571,0.317,-0.286,0.714,
06:38.576,0.317,-0.238,0.667,
06:38.581,0.22,-0.143,0.667,
06:38.586,0.268,-0.048,0.667,
06:38.591,0.366,-0.143,0.714,
06:38.596,0.317,0.048,0.857,
06:38.601,0.122,0.095,0.952,
06:38.606,0.122,0.286,0.81,
06:38.612,0.171,0,0.81,
06:38.617,0.268,-0.048,0.857,
06:38.622,0.22,-0.19,0.619,
06:38.627,0.415,-0.143,0.714,
06:38.632,0.22,-0.143,0.667,
06:38.637,0.268,-0.19,0.667,
06:38.642,0.268,-0.238,0.714,
06:38.647,0.366,-0.095,0.619,
06:38.652,0.171,0.048,0.619,
06:38.657,0.171,0.095,0.762,
06:38.662,0.317,0.048,0.857,
06:38.668,0.366,0.095,0.81,
06:38.673,0.171,-0.048,1,
06:38.678,0.122,0,0.762,
06:38.683,0.22,-0.095,0.857,
06:38.688,0.317,-0.19,0.81,
06:38.693,0.366,-0.095,0.714,
06:38.698,0.317,-0.048,0.571,
06:38.703,0.268,0,0.667,
06:38.708,0.268,-0.095,0.667,
06:38.713,0.268,-0.19,0.714,
06:38.718,0.171,0.048,0.714,
06:38.724,0.122,-0.143,0.619,
06:38.729,0.171,-0.19,0.714,
06:38.734,0.268,-0.286,0.667,
06:38.739,0.366,-0.238,0.571,
06:38.744,0.22,-0.095,0.667,
06:38.749,0.317,-0.095,0.81,
06:38.754,0.317,0,0.714,
06:38.759,0.171,0,0.762,
06:38.764,0.22,0.238,0.762,
06:38.769,0.122,0.286,0.81,
06:38.774,0.122,0.048,0.762,
06:38.780,0.22,-0.048,0.667,
06:38.785,0.366,-0.048,0.905,
06:38.790,0.317,-0.143,0.762,
06:38.795,0.317,-0.238,0.667,
06:38.800,0.22,-0.19,0.619,
06:38.805,0.317,-0.286,0.667,
06:38.810,0.268,-0.143,0.714,
06:38.815,0.366,-0.19,0.619,
06:38.820,0.171,-0.048,0.714,
06:38.825,0.073,-0.048,0.714,
06:38.830,0.171,-0.048,0.762,
06:38.836,0.415,-0.143,0.762,
06:38.841,0.317,-0.095,0.667,
06:38.846,0.171,0,0.714,
06:38.851,0.268,-0.143,0.714,
06:38.856,0.268,-0.095,0.762,
06:38.861,0.317,-0.095,0.667,
06:38.866,0.171,-0.048,0.762,
06:38.871,0.073,0,0.667,
06:38.876,0.22,0.095,0.714,
06:38.881,0.317,0.048,0.762,
06:38.886,0.366,0,0.857,
06:38.892,0.171,-0.095,0.714,
06:38.897,0.268,-0.095,0.762,
06:38.902,0.268,-0.095,0.905,
06:38.907,0.317,-0.095,0.905,
06:38.912,0.122,-0.095,0.714,
06:38.917,0.268,-0.048,0.714,
06:38.922,0.22,-0.143,0.619,
06:38.927,0.268,-0.095,0.714,
06:38.932,0.268,-0.19,0.714,
06:38.937,0.268,-0.143,0.762,
06:38.942,0.22,-0.095,0.619,
06:38.948,0.317,-0.143,0.667,
06:38.953,0.317,-0.143,0.762,
06:38.958,0.22,-0.238,0.857,
06:38.963,0.268,0,0.81,
06:38.968,0.22,-0.095,0.81,
06:38.973,0.317,-0.143,0.714,
06:38.978,0.317,-0.048,0.81,
06:38.983,0.22,0.095,0.81,
06:38.988,0.22,0.238,0.667,
06:38.993,0.122,0.143,0.81,
06:38.998,0.317,0.095,0.857,
06:39.004,0.171,0,0.714,
06:39.009,0.22,0.048,0.81,
06:39.014,0.171,-0.143,0.857,
06:39.019,0.366,-0.19,0.762,
06:39.024,0.366,-0.238,0.714,
06:39.029,0.22,-0.238,0.619,
06:39.034,0.268,-0.143,0.619,
06:39.039,0.268,-0.19,0.619,
06:39.044,0.22,-0.095,0.714,
06:39.049,0.317,-0.048,0.857,
06:39.055,0.073,0.048,0.81,
06:39.060,0.122,0,0.762,
06:39.065,0.122,0.095,0.857,
06:39.070,0.22,-0.095,0.81,
06:39.075,0.317,0,0.857,
06:39.080,0.366,0.048,0.905,
06:39.085,0.317,0,0.762,
06:39.090,0.317,0.048,0.81,
06:39.095,0.22,-0.095,0.667,
06:39.100,0.366,0,0.619,
06:39.105,0.122,0,0.762,
06:39.111,0.171,0.095,0.81,
06:39.116,0.22,0,0.857,
06:39.121,0.366,-0.19,0.81,
06:39.126,0.268,-0.19,0.81,
06:39.131,0.268,0,0.952,
06:39.136,0.171,-0.048,0.714,
06:39.141,0.268,-0.143,0.714,
06:39.146,0.317,-0.095,0.714,
06:39.151,0.268,0.048,0.762,
06:39.156,0.268,0.19,0.762,
06:39.161,0.22,0,0.619,
06:39.167,0.122,-0.095,0.762,
06:39.172,0.317,-0.143,0.762,
06:39.177,0.366,-0.19,0.714,
06:39.182,0.268,-0.19,0.667,
06:39.187,0.317,-0.238,0.619,
06:39.192,0.268,-0.238,0.81,
06:39.197,0.268,-0.048,0.762,
06:39.202,0.317,0.048,0.81,
06:39.207,0.122,0.048,0.667,
06:39.212,0.122,0.143,0.714,
06:39.217,0.22,0.143,0.857,
06:39.223,0.268,0.19,0.857,
06:39.228,0.317,0.143,0.762,
06:39.233,0.268,0,0.857,
06:39.238,0.268,-0.048,0.857,
06:39.243,0.317,-0.143,0.762,
06:39.248,0.171,-0.143,0.619,
06:39.253,0.22,-0.19,0.619,
06:39.258,0.317,-0.143,0.667,
06:39.263,0.317,-0.143,0.619,
06:39.268,0.317,-0.095,0.714,
06:39.273,0.22,-0.048,0.619,
06:39.279,0.073,0,0.762,
06:39.284,0.122,-0.095,0.762,
06:39.289,0.268,-0.095,0.619,
06:39.294,0.317,-0.143,0.762,
06:39.299,0.366,-0.095,0.476,
06:39.304,0.171,0.048,0.667,
06:39.309,0.268,-0.048,0.81,
06:39.314,0.268,-0.048,0.81,
06:39.319,0.268,0.048,0.667,
06:39.324,0.22,0.095,0.571,
06:39.329,0.122,0,0.571,
06:39.335,0.366,0,0.714,
06:39.340,0.366,-0.095,0.905,
06:39.345,0.268,-0.048,0.714,
06:39.350,0.22,0.048,0.857,
06:39.355,0.268,0,0.762,
06:39.360,0.268,-0.143,0.905,
06:39.365,0.22,-0.19,0.714,
06:39.370,0.22,-0.143,0.619,
06:39.375,0.22,-0.048,0.524,
06:39.380,0.268,-0.048,0.857,
06:39.385,0.268,-0.143,0.619,
06:39.391,0.171,-0.095,0.667,
06:39.396,0.268,-0.143,0.619,
06:39.401,0.171,-0.143,0.619,
06:39.406,0.268,-0.143,0.619,
06:39.411,0.317,-0.19,0.667,
06:39.416,0.268,-0.095,0.762,
06:39.421,0.268,-0.095,0.762,
06:39.426,0.22,-0.143,0.667,
06:39.431,0.317,-0.095,0.714,
06:39.436,0.366,0.143,0.857,
06:39.441,0.171,0.095,0.714,
06:39.447,0.171,0.095,0.714,
06:39.452,0.268,0.095,0.81,
06:39.457,0.317,-0.048,0.81,
06:39.462,0.317,0.048,0.952,
06:39.467,0.171,0,0.81,
06:39.472,0.171,-0.095,0.762,
06:39.477,0.22,-0.19,0.714,
06:39.482,0.366,-0.238,0.857,
06:39.487,0.268,-0.238,0.571,
06:39.492,0.22,-0.095,0.667,
06:39.497,0.171,-0.19,0.667,
06:39.503,0.22,-0.238,0.762,
06:39.508,0.22,-0.19,0.762,
06:39.513,0.171,-0.095,0.714,
06:39.518,0.171,-0.095,0.714,
06:39.523,0.22,-0.095,0.619,
06:39.528,0.366,-0.095,0.81,
06:39.533,0.317,-0.048,0.762,
06:39.538,0.268,0.048,0.81,
06:39.543,0.22,-0.048,0.905,
06:39.548,0.22,0.048,0.762,
06:39.553,0.171,0,0.81,
06:39.559,0.268,0.095,0.81,
06:39.564,0.22,0.19,1,
06:39.569,0.122,-0.048,0.762,
06:39.574,0.268,-0.238,0.905,
06:39.579,0.366,-0.238,0.857,
06:39.584,0.22,-0.238,0.857,
06:39.589,0.073,-0.238,0.667,
06:39.594,0.317,-0.238,0.714,
06:39.599,0.22,-0.143,0.667,
06:39.604,0.415,-0.048,0.857,
06:39.610,0.122,-0.048,0.857,
06:39.615,0.122,0.048,0.81,
06:39.620,0.073,-0.048,0.81,
06:39.625,0.268,0.048,0.81,
06:39.630,0.317,0,0.81,
06:39.635,0.366,-0.095,0.714,
06:39.640,0.268,-0.095,0.762,
06:39.645,0.268,-0.19,0.762,
06:39.650,0.268,-0.143,0.81,
06:39.655,0.22,-0.143,0.81,
06:39.660,0.22,0.048,0.571,
06:39.666,0.171,0.143,0.667,
06:39.671,0.317,0.143,0.714,
06:39.676,0.366,0,0.952,
06:39.681,0.171,0.048,0.762,
06:39.686,0.22,0.048,0.905,
06:39.691,0.171,-0.048,0.857,
06:39.696,0.317,-0.143,0.857,
06:39.701,0.268,-0.19,0.714,
06:39.706,0.268,-0.238,0.667,
06:39.711,0.22,-0.143,0.667,
06:39.716,0.366,-0.095,0.714,
06:39.722,0.268,-0.143,0.714,
06:39.727,0.122,-0.048,0.81,
06:39.732,0.171,0,0.857,
06:39.737,0.122,0.095,0.762,
06:39.742,0.22,-0.048,0.714,
06:39.747,0.317,-0.143,0.667,
06:39.752,0.366,-0.048,0.714,
06:39.757,0.268,-0.048,0.714,
06:39.762,0.317,0,0.762,
06:39.767,0.317,-0.095,0.81,
06:39.772,0.366,0,0.667,
06:39.778,0.122,-0.048,0.81,
06:39.783,0.171,0.19,0.571,
06:39.788,0.415,0.095,0.857,
06:39.793,0.122,-0.048,0.667,
06:39.798,0.268,-0.095,0.81,
06:39.803,0.073,-0.095,0.762,
06:39.808,0.22,-0.143,0.714,
06:39.813,0.268,-0.19,0.667,
06:39.818,0.415,-0.238,0.667,
06:39.823,0.22,-0.095,0.571,
06:39.828,0.317,0,0.524,
06:39.834,0.22,-0.048,0.667,
06:39.839,0.22,0,0.714,
06:39.844,0.268,0,0.762,
06:39.849,0.22,0,0.81,
06:39.854,0.268,0,0.571,
06:39.859,0.171,-0.143,0.571,
06:39.864,0.366,-0.095,0.714,
06:39.869,0.22,-0.19,0.667,
06:39.874,0.268,0.048,0.714,
06:39.879,0.171,-0.095,0.714,
06:39.884,0.22,-0.048,0.714,
06:39.890,0.22,0.048,0.714,
06:39.895,0.171,0.19,0.619,
06:39.900,0.122,0.143,0.714,
06:39.905,0.122,0.048,0.714,
06:39.910,0.463,-0.095,0.857,
06:39.915,0.366,-0.143,0.81,
06:39.920,0.366,-0.095,0.762,
06:39.925,0.171,-0.095,0.714,
06:39.930,0.268,-0.143,0.714,
06:39.935,0.268,-0.238,0.667,
06:39.940,0.317,-0.19,0.667,
06:39.946,0.122,-0.095,0.619,
06:39.951,0.073,-0.095,0.762,
06:39.956,0.073,-0.048,0.714,
06:39.961,0.22,-0.048,0.81,
06:39.966,0.268,-0.095,0.619,
06:39.971,0.317,-0.143,0.571,
06:39.976,0.366,-0.095,0.667,
06:39.981,0.317,-0.19,0.667,
06:39.986,0.366,-0.143,0.857,
06:39.991,0.317,-0.048,0.762,
06:39.996,0.22,0.143,0.762,
06:40.002,0.22,0.095,0.81,
06:40.007,0.22,0.048,0.667,
06:40.012,0.317,0.238,0.905,
06:40.017,0.22,0,0.762,
06:40.022,0.171,0,0.905,
06:40.027,0.268,-0.238,0.857,
06:40.032,0.366,-0.19,0.81,
06:40.037,0.317,-0.19,0.762,
06:40.042,0.22,-0.238,0.714,
06:40.047,0.268,0,0.667,
06:40.052,0.366,-0.095,0.714,
06:40.058,0.268,-0.095,0.714,
06:40.063,0.22,0.095,0.81,
06:40.068,0.073,0,0.81,
06:40.073,0.171,0,0.81,
06:40.078,0.122,-0.143,0.762,
06:40.083,0.317,-0.143,0.81,
06:40.088,0.268,-0.095,0.762,
06:40.093,0.22,-0.048,0.762,
06:40.098,0.268,-0.048,0.81,
06:40.103,0.268,-0.095,0.81,
06:40.109,0.268,0,0.762,
06:40.114,0.22,0.19,0.857,
06:40.119,0.122,0.19,0.714,
06:40.124,0.22,0.19,0.857,
06:40.129,0.366,-0.095,0.714,
06:40.134,0.366,-0.19,0.81,
06:40.139,0.22,-0.143,0.81,
06:40.144,0.317,-0.095,0.81,
06:40.149,0.268,-0.143,0.905,
06:40.154,0.317,-0.238,0.857,
06:40.159,0.22,0,0.714,
06:40.165,0.317,-0.095,0.524,
06:40.170,0.171,-0.048,0.714,
06:40.175,0.268,0,0.81,
06:40.180,0.171,-0.095,0.857,
06:40.185,0.268,0.095,0.762,
06:40.190,0.171,-0.048,0.714,
06:40.195,0.22,0,0.619,
06:40.200,0.171,-0.19,0.762,
06:40.205,0.317,-0.143,0.714,
06:40.210,0.366,0,0.762,
06:40.215,0.22,-0.095,0.762,
06:40.221,0.317,0,0.81,
06:40.226,0.171,-0.095,0.762,
06:40.231,0.317,0.095,0.667,
06:40.236,0.171,0,0.762,
06:40.241,0.122,0,0.714,
06:40.246,0.22,-0.19,0.905,
06:40.251,0.122,-0.048,0.905,
06:40.256,0.171,-0.095,0.857,
06:40.261,0.22,-0.048,0.81,
06:40.266,0.268,-0.19,0.667,
06:40.271,0.366,-0.095,0.714,
06:40.277,0.415,-0.143,0.714,
06:40.282,0.171,-0.048,0.714,
06:40.287,0.171,-0.048,0.762,
06:40.292,0.122,-0.048,0.81,
06:40.297,0.268,-0.143,0.762,
06:40.302,0.268,-0.143,0.714,
06:40.307,0.366,-0.048,0.619,
06:40.312,0.268,-0.095,0.714,
06:40.317,0.268,-0.238,0.571,
06:40.322,0.366,-0.095,0.81,
06:40.327,0.317,-0.095,0.762,
06:40.333,0.22,0.095,0.81,
06:40.338,0.171,0.095,0.81,
06:40.343,0.22,0.143,0.667,
06:40.348,0.22,0.048,0.81,
06:40.353,0.171,0.095,0.762,
06:40.358,0.22,-0.048,0.762,
06:40.363,0.268,-0.048,0.857,
06:40.368,0.366,-0.238,0.762,
06:40.373,0.268,-0.143,0.714,
06:40.378,0.171,-0.19,0.762,
06:40.383,0.122,-0.048,0.571,
06:40.389,0.268,-0.048,0.714,
06:40.394,0.22,-0.095,0.619,
06:40.399,0.317,-0.095,0.667,
06:40.404,0.22,0,0.714,
06:40.409,0.171,0,0.762,
06:40.414,0.268,-0.143,0.667,
06:40.419,0.317,-0.19,0.762,
06:40.424,0.268,-0.19,0.619,
06:40.429,0.317,0,0.667,
06:40.434,0.268,0.048,0.714,
06:40.439,0.268,-0.19,0.762,
06:40.445,0.366,0.143,0.81,
06:40.450,0.122,0.095,0.81,
06:40.455,0.122,0.143,0.667,
06:40.460,0.22,0.048,0.714,
06:40.465,0.268,-0.095,0.762,
06:40.470,0.22,-0.19,0.81,
06:40.475,0.22,-0.238,0.81,
06:40.480,0.268,-0.095,0.714,
06:40.485,0.317,-0.143,0.762,
06:40.490,0.317,-0.19,0.81,
06:40.495,0.317,-0.048,0.619,
06:40.501,0.268,0,0.714,
06:40.506,0.122,-0.048,0.762,
06:40.511,0.171,-0.095,0.81,
06:40.516,0.122,0,0.857,
06:40.521,0.317,0.048,0.667,
06:40.526,0.22,-0.143,0.619,
06:40.531,0.268,-0.238,0.714,
06:40.536,0.366,-0.095,0.667,
06:40.541,0.268,-0.19,0.667,
06:40.546,0.268,-0.048,0.714,
06:40.551,0.171,-0.143,0.714,
06:40.557,0.268,0.095,0.714,
06:40.562,0.268,0.143,0.857,
06:40.567,0.22,0.19,0.667,
06:40.572,0.171,0.19,0.857,
06:40.577,0.22,0,0.667,
06:40.582,0.268,-0.19,0.857,
06:40.587,0.317,-0.19,0.905,
06:40.592,0.317,-0.095,0.905,
06:40.597,0.22,-0.048,0.714,
06:40.602,0.22,-0.143,0.714,
06:40.608,0.268,0,0.714,
06:40.613,0.415,-0.095,0.714,
06:40.618,0.171,-0.048,0.667,
06:40.623,0.268,-0.095,0.714,
06:40.628,0.024,-0.095,0.714,
06:40.633,0.268,-0.095,0.762,
06:40.638,0.268,-0.19,0.762,
06:40.643,0.22,-0.095,0.667,
06:40.648,0.317,-0.095,0.714,
06:40.653,0.22,-0.143,0.667,
06:40.658,0.366,-0.143,0.762,
06:40.664,0.268,-0.048,0.81,
06:40.669,0.22,0.19,0.667,
06:40.674,0.073,0.095,0.857,
06:40.679,0.268,0.048,0.714,
06:40.684,0.268,0.048,0.762,
06:40.689,0.171,-0.048,0.762,
06:40.694,0.171,-0.048,0.857,
06:40.699,0.268,-0.048,0.857,
06:40.704,0.22,-0.238,0.81,
06:40.709,0.317,-0.143,0.762,
06:40.714,0.22,-0.19,0.667,
06:40.720,0.317,-0.048,0.571,
06:40.725,0.171,-0.143,0.762,
06:40.730,0.268,-0.048,0.81,
06:40.735,0.171,-0.048,0.762,
06:40.740,0.122,0.095,0.762,
06:40.745,0.122,0,0.571,
06:40.750,0.22,-0.048,0.667,
06:40.755,0.268,-0.19,0.619,
06:40.760,0.317,0,0.81,
06:40.765,0.317,-0.048,0.714,
06:40.770,0.22,-0.048,0.762,
06:40.776,0.317,-0.143,0.714,
06:40.781,0.268,0,0.619,
06:40.786,0.171,0.095,0.714,
06:40.791,0.122,0.095,0.476,
06:40.796,0.268,0.095,0.81,
06:40.801,0.317,-0.095,0.667,
06:40.806,0.22,-0.095,0.81,
06:40.811,0.22,-0.048,0.81,
06:40.816,0.22,-0.19,0.667,
06:40.821,0.317,-0.143,0.667,
06:40.826,0.268,-0.19,0.667,
06:40.832,0.366,0,0.619,
06:40.837,0.268,0.048,0.667,
06:40.842,0.22,-0.095,0.619,
06:40.847,0.268,-0.095,0.762,
06:40.852,0.268,-0.048,0.81,
06:40.857,0.171,0,0.714,
06:40.862,0.22,-0.095,0.619,
06:40.867,0.171,-0.095,0.619,
06:40.872,0.317,-0.19,0.714,
06:40.877,0.366,-0.095,0.619,
06:40.882,0.366,0.048,0.714,
06:40.888,0.171,0,0.714,
06:40.893,0.268,0,0.667,
06:40.898,0.22,0.095,0.762,
06:40.903,0.317,0.19,0.571,
06:40.908,0.122,0.095,0.762,
06:40.913,0.268,0,0.714,
06:40.918,0.268,-0.095,0.952,
06:40.923,0.268,-0.143,0.857,
06:40.928,0.122,-0.143,0.619,
06:40.933,0.22,-0.095,0.762,
06:40.938,0.122,-0.19,0.619,
06:40.944,0.366,-0.19,0.619,
06:40.949,0.317,-0.143,0.714,
06:40.954,0.171,0,0.667,
06:40.959,0.22,0.095,0.81,
06:40.964,0.122,0.095,0.762,
06:40.969,0.171,0.048,0.762,
06:40.974,0.171,-0.095,0.714,
06:40.979,0.268,-0.095,0.667,
06:40.984,0.317,-0.095,0.81,
06:40.989,0.22,-0.143,0.667,
06:40.994,0.366,-0.095,0.905,
06:41.000,0.268,-0.143,0.714,
06:41.005,0.317,0.048,0.714,
06:41.010,0.22,0.143,0.857,
06:41.015,0.268,0.095,0.667,
06:41.020,0.122,0.19,0.952,
06:41.025,0.171,0.095,0.952,
06:41.030,0.122,0.048,0.905,
06:41.035,0.171,-0.143,0.952,
06:41.040,0.317,-0.143,0.905,
06:41.045,0.366,-0.048,0.81,
06:41.050,0.268,-0.19,0.762,
06:41.056,0.268,-0.048,0.619,
06:41.061,0.268,-0.095,0.714,
06:41.066,0.268,-0.048,0.762,
06:41.071,0.22,0,0.81,
06:41.076,0.171,0.048,0.857,
06:41.081,0.171,0.048,0.714,
06:41.086,0.317,-0.048,0.714,
06:41.091,0.317,-0.143,0.667,
06:41.096,0.268,-0.095,0.81,
06:41.101,0.317,-0.095,0.619,
06:41.106,0.317,0,0.81,
06:41.112,0.366,-0.19,0.714,
06:41.117,0.317,-0.048,0.762,
06:41.122,0.073,0.19,0.81,
06:41.127,0.024,0.19,0.667,
06:41.132,0.024,0.238,0.905,
06:41.137,0.22,-0.048,0.81,
06:41.142,0.317,-0.095,0.81,
06:41.147,0.317,-0.19,0.857,
06:41.152,0.22,-0.143,0.81,
06:41.157,0.268,0,0.762,
06:41.163,0.268,-0.19,0.667,
06:41.168,0.317,-0.048,0.714,
06:41.173,0.122,-0.048,0.714,
06:41.178,0.171,-0.048,0.667,
06:41.183,0.268,-0.048,0.81,
06:41.188,0.268,-0.048,0.857,
06:41.193,0.268,0,0.714,
06:41.198,0.171,-0.143,0.714,
06:41.203,0.22,-0.048,0.667,
06:41.208,0.317,-0.143,0.714,
06:41.213,0.317,-0.048,0.81,
06:41.219,0.22,0,0.762,
06:41.224,0.073,0.048,0.762,
06:41.229,0.22,0.143,0.762,
06:41.234,0.268,0.143,0.762,
06:41.239,0.317,0.143,0.714,
06:41.244,0.171,0.048,0.762,
06:41.249,0.317,0,0.762,
06:41.254,0.22,-0.286,0.762,
06:41.259,0.366,-0.238,0.857,
06:41.264,0.171,-0.095,0.762,
06:41.269,0.268,-0.048,0.667,
06:41.275,0.073,-0.095,0.524,
06:41.280,0.317,-0.095,0.714,
06:41.285,0.268,-0.048,0.81,
06:41.290,0.317,0.048,0.762,
06:41.295,0.122,-0.048,0.81,
06:41.300,0.268,0.048,0.762,
06:41.305,0.317,0.143,0.714,
06:41.310,0.268,-0.095,0.762,
06:41.315,0.317,0,0.619,
06:41.320,0.268,-0.095,0.619,
06:41.325,0.22,-0.238,0.619,
06:41.331,0.366,-0.19,0.667,
06:41.336,0.268,-0.238,0.524,
06:41.341,0.268,-0.048,0.619,
06:41.346,0.22,0.095,0.667,
06:41.351,0.22,-0.095,0.667,
06:41.356,0.22,0,0.81,
06:41.361,0.317,-0.048,0.81,
06:41.366,0.171,0.095,0.857,
06:41.371,0.22,0,0.952,
06:41.376,0.317,0,0.857,
06:41.381,0.317,0,0.857,
06:41.387,0.268,-0.048,0.571,
06:41.392,0.268,-0.048,0.762,
06:41.397,0.22,-0.095,0.619,
06:41.402,0.366,-0.19,0.714,
06:41.407,0.122,-0.19,0.619,
06:41.412,0.22,0,0.667,
06:41.417,0.122,-0.095,0.714,
06:41.422,0.22,-0.19,0.571,
06:41.427,0.317,-0.143,0.571,
06:41.432,0.171,-0.19,0.667,
06:41.437,0.22,-0.143,0.714,
06:41.443,0.268,-0.048,0.667,
06:41.448,0.317,-0.095,0.762,
06:41.453,0.366,0.143,0.905,
06:41.458,0.268,0.19,0.762,
06:41.463,0.22,0.238,0.762,
06:41.468,0.22,0.19,0.81,
06:41.473,0.317,0.143,0.905,
06:41.478,0.22,0,0.81,
06:41.483,0.22,-0.19,0.952,
06:41.488,0.22,-0.238,0.762,
06:41.493,0.268,-0.19,0.762,
06:41.499,0.268,-0.238,0.619,
06:41.504,0.415,-0.048,0.762,
06:41.509,0.073,-0.19,0.714,
06:41.514,0.22,0,0.762,
06:41.519,0.171,-0.095,0.81,
06:41.524,0.22,0,0.905,
06:41.529,0.317,0.095,0.857,
06:41.534,0.122,0.048,0.762,
06:41.539,0.317,0.048,0.762,
06:41.544,0.317,-0.095,0.714,
06:41.549,0.317,-0.095,0.905,
06:41.555,0.268,0.095,0.81,
06:41.560,0.122,-0.048,0.714,
06:41.565,0.122,0.095,0.81,
06:41.570,0.171,0.048,0.762,
06:41.575,0.268,0.095,0.714,
06:41.580,0.22,0.048,0.81,
06:41.585,0.268,-0.143,0.81,
06:41.590,0.268,-0.095,0.857,
06:41.595,0.366,-0.095,0.857,
06:41.600,0.122,-0.048,0.857,
06:41.605,0.22,-0.048,0.81,
06:41.611,0.122,0,0.571,
06:41.616,0.366,-0.048,0.857,
06:41.621,0.268,-0.095,0.714,
06:41.626,0.317,-0.095,0.81,
06:41.631,0.122,-0.143,0.714,
06:41.636,0.317,-0.048,0.762,
06:41.641,0.22,-0.048,0.81,
06:41.646,0.171,-0.143,0.81,
06:41.651,0.317,0,0.81,
06:41.656,0.122,-0.143,0.667,
06:41.662,0.366,0.048,0.81,
06:41.667,0.366,0,0.714,
06:41.672,0.268,0,0.762,
06:41.677,0.22,0.238,0.81,
06:41.682,0.171,0.143,0.762,
06:41.687,0.268,0.095,0.714,
06:41.692,0.268,0,0.667,
06:41.697,0.171,-0.143,0.619,
06:41.702,0.268,-0.095,0.714,
06:41.707,0.171,-0.238,0.857,
06:41.712,0.268,-0.095,0.762,
06:41.718,0.268,-0.19,0.762,
06:41.723,0.22,-0.095,0.476,
06:41.728,0.317,0.048,0.714,
06:41.733,0.171,-0.095,0.667,
06:41.738,0.317,-0.048,0.905,
06:41.743,0.171,0,0.714,
06:41.748,0.171,0.19,0.667,
06:41.753,0.122,0.095,0.619,
06:41.758,0.22,-0.095,0.667,
06:41.763,0.366,-0.048,0.667,
06:41.768,0.268,-0.048,0.667,
06:41.774,0.268,-0.095,0.667,
06:41.779,0.317,-0.048,0.714,
06:41.784,0.317,-0.143,0.667,
06:41.789,0.22,-0.048,0.762,
06:41.794,0.171,0.095,0.619,
06:41.799,0.073,0.095,0.667,
06:41.804,0.171,0.048,0.667,
06:41.809,0.366,-0.143,0.857,
06:41.814,0.317,-0.095,0.714,
06:41.819,0.268,-0.143,0.81,
06:41.824,0.22,0,0.667,
06:41.830,0.317,-0.143,0.714,
06:41.835,0.317,-0.143,0.571,
06:41.840,0.317,0,0.762,
06:41.845,0.171,-0.095,0.619,
06:41.850,0.22,0,0.81,
06:41.855,0.171,-0.238,0.81,
06:41.860,0.268,0,0.857,
06:41.865,0.317,0.095,0.667,
06:41.870,0.122,-0.048,0.571,
06:41.875,0.268,-0.095,0.714,
06:41.880,0.268,-0.286,0.714,
06:41.886,0.366,-0.048,0.81,
06:41.891,0.22,-0.048,0.762,
06:41.896,0.22,0,0.524,
06:41.901,0.268,0.048,0.762,
06:41.906,0.317,0.048,0.667,
06:41.911,0.268,0.048,0.762,
06:41.916,0.073,0.095,0.762,
06:41.921,0.268,-0.048,0.857,
06:41.926,0.268,-0.095,0.81,
06:41.931,0.317,-0.238,0.762,
06:41.936,0.22,-0.095,0.857,
06:41.942,0.122,-0.143,0.714,
06:41.947,0.366,-0.143,0.714,
06:41.952,0.22,-0.19,0.762,
06:41.957,0.366,-0.095,0.762,
06:41.962,0.073,-0.143,0.81,
06:41.967,0.22,-0.048,0.714,
06:41.972,0.22,0.095,0.762,
06:41.977,0.366,0,0.762,
06:41.982,0.268,-0.095,0.619,
06:41.987,0.268,0,0.667,
06:41.992,0.122,-0.143,0.714,
06:41.998,0.317,0.048,0.762,
06:42.003,0.317,-0.143,0.762,
06:42.008,0.171,0,0.714,
06:42.013,0.22,-0.048,0.952,
06:42.018,0.171,0.048,0.667,
06:42.023,0.317,-0.048,0.81,
06:42.028,0.317,-0.143,0.667,
06:42.033,0.171,-0.095,0.857,
06:42.038,0.22,-0.095,0.857,
06:42.043,0.317,0,0.81,
06:42.048,0.317,0,0.667,
06:42.054,0.268,0.048,0.667,
06:42.059,0.268,0,0.762,
06:42.064,0.268,0.048,0.81,
06:42.069,0.317,-0.095,0.81,
06:42.074,0.171,0,0.81,
06:42.079,0.22,-0.095,0.762,
06:42.084,0.171,0,0.714,
06:42.089,0.122,-0.095,0.667,
06:42.094,0.268,-0.095,0.619,
06:42.099,0.415,-0.143,0.667,
06:42.104,0.268,-0.095,0.714,
06:42.110,0.415,-0.048,0.762,
06:42.115,0.317,-0.048,0.857,
06:42.120,0.366,0.048,0.714,
06:42.125,0.317,0,0.857,
06:42.130,0.122,0.143,0.619,
06:42.135,0.171,0,0.619,
06:42.140,0.22,0.048,0.81,
06:42.145,0.317,0,0.905,
06:42.150,0.317,0,0.905,
06:42.155,0.22,0.048,1,
06:42.160,0.22,-0.095,0.857,
06:42.166,0.268,0,0.714,
06:42.171,0.366,-0.048,0.857,
06:42.176,0.268,-0.048,0.81,
06:42.181,0.268,-0.095,0.714,
06:42.186,-0.024,-0.095,0.714,
06:42.191,0.171,-0.048,0.667,
06:42.196,0.268,-0.095,0.667,
06:42.201,0.171,-0.143,0.619,
06:42.206,0.268,-0.19,0.619,
06:42.211,0.22,-0.238,0.667,
06:42.217,0.366,-0.19,0.857,
06:42.222,0.415,-0.143,0.762,
06:42.227,0.366,0,0.667,
06:42.232,0.22,0.19,0.667,
06:42.237,0.22,0.095,0.81,
06:42.242,0.171,0.19,0.81,
06:42.247,0.22,0.238,0.714,
06:42.252,0.171,0.143,0.714,
06:42.257,0.073,0.048,0.762,
06:42.262,0.317,-0.143,0.714,
06:42.267,0.366,-0.19,0.81,
06:42.273,0.415,-0.238,0.81,
06:42.278,0.22,-0.238,0.667,
06:42.283,0.268,-0.19,0.667,
06:42.288,0.22,-0.143,0.571,
06:42.293,0.317,0,0.905,
06:42.298,0.22,-0.095,0.905,
06:42.303,0.22,0.238,0.81,
06:42.308,0.22,0.238,0.952,
06:42.313,0.122,0.095,0.714,
06:42.318,0.22,0,0.667,
06:42.323,0.268,-0.095,0.762,
06:42.329,0.366,-0.143,0.762,
06:42.334,0.415,-0.095,0.762,
06:42.339,0.366,-0.095,0.714,
06:42.344,0.268,0.048,0.714,
06:42.349,0.122,0.143,0.714,
06:42.354,0.171,0.095,0.667,
06:42.359,0.22,0.048,0.81,
06:42.364,0.366,-0.048,0.762,
06:42.369,0.317,-0.143,0.762,
06:42.374,0.268,-0.095,0.81,
06:42.379,0.073,-0.143,0.762,
06:42.385,0.268,-0.048,0.81,
06:42.390,0.317,-0.048,0.762,
06:42.395,0.366,0.048,0.762,
06:42.400,0.171,-0.048,0.714,
06:42.405,0.268,-0.048,0.714,
06:42.410,0.268,0,0.714,
06:42.415,0.317,0.095,0.81,
06:42.420,0.171,0.095,0.667,
06:42.425,0.171,-0.095,0.619,
06:42.430,0.317,-0.143,0.667,
06:42.435,0.366,-0.143,0.524,
06:42.441,0.366,0.048,0.714,
06:42.446,0.268,0,0.81,
06:42.451,0.171,0.095,0.762,
06:42.456,0.268,0.286,0.81,
06:42.461,0.22,0.143,0.857,
06:42.466,0.122,0.19,0.667,
06:42.471,0.122,0.048,0.667,
06:42.476,0.22,-0.048,0.714,
06:42.481,0.317,-0.238,0.667,
06:42.486,0.415,-0.238,0.81,
06:42.491,0.22,-0.048,0.762,
06:42.497,0.268,-0.048,0.762,
06:42.502,0.268,-0.19,0.714,
06:42.507,0.366,0,0.905,
06:42.512,0.317,0,0.81,
06:42.517,0.268,0,0.762,
06:42.522,0.171,0,0.667,
06:42.527,0.268,0,0.857,
06:42.532,0.22,0.095,0.667,
06:42.537,0.22,-0.048,0.714,
06:42.542,0.122,-0.048,0.619,
06:42.547,0.171,-0.143,0.619,
06:42.553,0.415,-0.095,0.905,
06:42.558,0.415,-0.095,0.81,
06:42.563,0.171,-0.048,0.667,
06:42.568,0.22,0.143,0.667,
06:42.573,0.171,0.143,0.762,
06:42.578,0.22,0,0.762,
06:42.583,0.22,-0.048,0.762,
06:42.588,0.268,-0.048,0.714,
06:42.593,0.171,-0.048,0.714,
06:42.598,0.317,-0.238,0.762,
06:42.603,0.268,-0.19,0.762,
06:42.609,0.317,-0.095,0.667,
06:42.614,0.268,-0.143,0.619,
06:42.619,0.268,-0.048,0.667,
06:42.624,0.22,-0.238,0.524,
06:42.629,0.22,-0.048,0.619,
06:42.634,0.268,-0.048,0.524,
06:42.639,0.22,0.048,0.714,
06:42.644,0.268,0.19,0.762,
06:42.649,0.268,-0.095,0.762,
06:42.654,0.415,0,0.714,
06:42.659,0.268,-0.048,0.714,
06:42.665,0.317,0.048,0.714,
06:42.670,0.268,-0.048,0.81,
06:42.675,0.317,-0.095,0.714,
06:42.680,0.268,0.19,0.81,
06:42.685,0.268,0.238,0.667,
06:42.690,0.122,0.095,0.571,
06:42.695,0.268,-0.048,0.571,
06:42.700,0.317,-0.095,0.619,
06:42.705,0.268,-0.143,0.619,
06:42.710,0.268,-0.143,0.667,
06:42.716,0.22,-0.286,0.619,
06:42.721,0.366,-0.19,0.619,
06:42.726,0.317,-0.238,0.619,
06:42.731,0.317,0,0.762,
06:42.736,0.22,-0.048,0.619,
06:42.741,0.122,0,0.857,
06:42.746,0.268,0.095,0.857,
06:42.751,0.268,0.238,0.952,
06:42.756,0.122,0.238,0.714,
06:42.761,0.073,0.143,0.619,
06:42.766,0.268,0,0.714,
06:42.772,0.317,-0.143,0.81,
06:42.777,0.415,-0.095,0.762,
06:42.782,0.366,-0.048,0.762,
06:42.787,0.171,-0.095,0.762,
06:42.792,0.317,0,0.81,
06:42.797,0.366,0,0.714,
06:42.802,0.171,0.095,0.762,
06:42.807,0.073,0.095,0.714,
06:42.812,0.171,0,0.857,
06:42.817,0.366,0.048,0.952,
06:42.822,0.268,0.048,0.905,
06:42.828,0.171,0.095,0.762,
06:42.833,0.22,0.048,0.81,
06:42.838,0.22,-0.143,0.762,
06:42.843,0.415,-0.095,0.952,
06:42.848,0.317,0,0.81,
06:42.853,0.22,0,1,
06:42.858,0.268,-0.048,0.952,
06:42.863,0.268,-0.095,0.81,
06:42.868,0.122,-0.095,0.81,
06:42.873,0.317,-0.095,0.714,
06:42.878,0.268,-0.095,0.714,
06:42.884,0.268,-0.143,0.762,
06:42.889,0.317,0,0.857,
06:42.894,0.268,0,0.762,
06:42.899,0.317,0.19,0.81,
06:42.904,0.22,0.143,0.905,
06:42.909,0.171,0.095,0.857,
06:42.914,0.268,-0.048,0.857,
06:42.919,0.268,-0.048,0.619,
06:42.924,0.22,-0.095,0.905,
06:42.929,0.268,-0.095,0.857,
06:42.934,0.366,-0.095,0.952,
06:42.940,0.268,-0.143,0.857,
06:42.945,0.317,-0.095,0.857,
06:42.950,0.22,-0.048,0.714,
06:42.955,0.268,0.048,0.952,
06:42.960,0.122,0,0.762,
06:42.965,0.317,0,0.952,
06:42.970,0.171,-0.048,0.714,
06:42.975,0.268,0.048,0.81,
06:42.980,0.073,0.048,0.619,
06:42.985,0.22,-0.143,0.571,
06:42.990,0.268,-0.143,0.619,
06:42.996,0.268,-0.19,0.571,
06:43.001,0.415,-0.095,0.762,
06:43.006,0.366,-0.095,0.619,
06:43.011,0.366,-0.048,0.619,
06:43.016,0.317,0.143,0.857,
06:43.021,0.171,0.095,0.667,
06:43.026,0.122,0.048,0.619,
06:43.031,0.073,0,0.571,
06:43.036,0.268,0,0.81,
06:43.041,0.22,-0.048,0.667,
06:43.046,0.268,-0.048,0.762,
06:43.052,0.171,-0.143,0.667,
06:43.057,0.317,-0.048,0.619,
06:43.062,0.366,-0.143,0.571,
06:43.067,0.268,-0.143,0.857,
06:43.072,0.22,-0.095,0.476,
06:43.077,0.22,-0.143,0.762,
06:43.082,0.22,-0.095,0.619,
06:43.087,0.317,0.095,0.762,
06:43.092,0.122,0.095,0.524,
06:43.097,0.122,-0.095,0.524,
06:43.102,0.268,-0.19,0.619,
06:43.108,0.317,-0.19,0.714,
06:43.113,0.268,-0.19,0.714,
06:43.118,0.268,-0.143,0.619,
06:43.123,0.22,0,0.619,
06:43.128,0.317,0,0.714,
06:43.133,0.366,0.143,0.619,
06:43.138,0.122,0.143,0.714,
06:43.143,0.024,0.238,0.619,
06:43.148,0.268,0.143,0.762,
06:43.153,0.366,-0.19,0.619,
06:43.158,0.317,-0.143,0.762,
06:43.164,0.171,-0.095,0.667,
06:43.169,0.22,-0.19,0.714,
06:43.174,0.366,-0.19,0.619,
06:43.179,0.268,-0.238,0.81,
06:43.184,0.317,-0.095,0.667,
06:43.189,0.122,-0.048,0.762,
06:43.194,0.22,0,0.667,
06:43.199,0.22,0.095,0.905,
06:43.204,0.171,0.143,0.714,
06:43.209,0.366,0.048,0.714,
06:43.214,0.268,-0.143,0.667,
06:43.220,0.268,-0.143,0.714,
06:43.225,0.317,-0.19,0.762,
06:43.230,0.366,-0.19,0.667,
06:43.235,0.366,-0.095,0.667,
06:43.240,0.268,-0.048,0.762,
06:43.245,0.22,-0.095,0.714,
06:43.250,0.317,-0.095,0.81,
06:43.255,0.122,0,0.762,
06:43.260,0.171,0,0.905,
06:43.265,0.22,0,0.905,
06:43.271,0.415,0,1,
06:43.276,0.171,-0.095,0.714,
06:43.281,0.317,-0.143,0.905,
06:43.286,0.268,-0.143,0.762,
06:43.291,0.317,0.048,0.857,
06:43.296,0.366,-0.095,0.81,
06:43.301,0.317,-0.143,0.905,
06:43.306,0.22,-0.143,0.762,
06:43.311,0.171,0.048,0.857,
06:43.316,0.171,-0.048,0.81,
06:43.321,0.317,-0.048,0.81,
06:43.327,0.317,-0.095,0.762,
06:43.332,0.22,-0.143,0.905,
06:43.337,0.317,-0.048,0.857,
06:43.342,0.171,-0.095,0.857,
06:43.347,0.317,0.048,0.81,
06:43.352,0.268,0.048,0.952,
06:43.357,0.171,0.238,0.857,
06:43.362,0.122,0.095,0.762,
06:43.367,0.171,-0.048,0.714,
06:43.372,0.268,-0.048,0.905,
06:43.377,0.317,-0.143,0.905,
06:43.383,0.317,-0.143,0.857,
06:43.388,0.317,-0.19,0.857,
06:43.393,0.22,-0.19,0.81,
06:43.398,0.268,-0.19,0.905,
06:43.403,0.317,-0.095,0.857,
06:43.408,0.22,-0.048,0.762,
06:43.413,0.22,0.143,1.048,
06:43.418,0.317,0.143,1.048,
06:43.423,0.317,0,1.143,
06:43.428,0.024,-0.048,0.714,
06:43.433,0.171,-0.095,0.619,
06:43.439,0.268,-0.095,0.81,
06:43.444,0.415,-0.095,0.905,
06:43.449,0.415,-0.143,0.857,
06:43.454,0.317,-0.143,0.476,
06:43.459,0.317,0,0.571,
06:43.464,0.22,0,0.667,
06:43.469,0.22,0,0.81,
06:43.474,0.073,-0.048,0.762,
06:43.479,0.122,0.048,0.762,
06:43.484,0.268,-0.048,0.857,
06:43.489,0.317,-0.095,0.857,
06:43.495,0.317,0,0.905,
06:43.500,0.171,0.048,0.81,
06:43.505,0.268,0.095,0.714,
06:43.510,0.317,-0.048,0.762,
06:43.515,0.415,-0.048,0.714,
06:43.520,0.317,-0.048,0.571,
06:43.525,0.171,0,0.714,
06:43.530,0.22,-0.143,0.619,
06:43.535,0.22,-0.048,0.619,
06:43.540,0.268,-0.19,0.476,
06:43.545,0.268,-0.19,0.619,
06:43.551,0.268,-0.19,0.619,
06:43.556,0.317,-0.095,0.619,
06:43.561,0.317,-0.143,0.667,
06:43.566,0.268,-0.048,0.571,
06:43.571,0.268,0.143,0.667,
06:43.576,0.268,0.143,0.667,
06:43.581,0.268,0.095,0.571,
06:43.586,0.317,0,0.619,
06:43.591,0.171,0,0.619,
06:43.596,0.317,0.048,0.762,
06:43.601,0.22,0.048,0.714,
06:43.607,0.317,-0.095,0.762,
06:43.612,0.366,-0.143,0.667,
06:43.617,0.317,-0.095,0.667,
06:43.622,0.22,-0.048,0.524,
06:43.627,0.073,0,0.524,
06:43.632,0.171,-0.095,0.524,
06:43.637,0.22,-0.143,0.571,
06:43.642,0.171,-0.095,0.524,
06:43.647,0.22,0.048,0.667,
06:43.652,0.171,-0.143,0.524,
06:43.657,0.366,-0.143,0.571,
06:43.663,0.317,-0.19,0.619,
06:43.668,0.366,-0.095,0.667,
06:43.673,0.317,-0.095,0.714,
06:43.678,0.415,-0.095,0.619,
06:43.683,0.317,-0.048,0.714,
06:43.688,0.171,0.048,0.667,
06:43.693,0.22,0.095,0.714,
06:43.698,0.024,0.095,0.571,
06:43.703,0.268,0.095,0.762,
06:43.708,0.317,-0.095,0.762,
06:43.713,0.268,-0.19,0.714,
06:43.719,0.22,-0.238,0.667,
06:43.724,0.268,-0.095,0.714,
06:43.729,0.317,-0.19,0.714,
06:43.734,0.317,-0.143,0.81,
06:43.739,0.268,-0.19,0.619,
06:43.744,0.171,-0.048,0.619,
06:43.749,0.317,-0.095,0.81,
06:43.754,0.366,0,0.81,
06:43.759,0.317,0.143,0.857,
06:43.764,0.073,-0.095,0.667,
06:43.770,0.171,-0.143,0.619,
06:43.775,0.268,-0.19,0.81,
06:43.780,0.317,-0.143,0.762,
06:43.785,0.317,-0.095,0.714,
06:43.790,0.317,0,0.619,
06:43.795,0.22,-0.095,0.81,
06:43.800,0.22,-0.048,0.762,
06:43.805,0.268,0,0.667,
06:43.810,0.317,0.048,0.762,
06:43.815,0.171,-0.095,0.81,
06:43.820,0.415,-0.048,1,
06:43.826,0.366,-0.238,0.905,
06:43.831,0.317,-0.19,0.81,
06:43.836,0.22,-0.048,1,
06:43.841,0.22,-0.143,0.857,
06:43.846,0.268,-0.095,0.952,
06:43.851,0.268,-0.048,0.905,
06:43.856,0.22,-0.048,0.857,
06:43.861,0.073,0.19,1.048,
06:43.866,0.073,0.286,1,
06:43.871,-0.073,-0.048,0.857,
06:43.876,0.22,-0.095,0.81,
06:43.882,0.171,-0.095,0.667,
06:43.887,0.366,-0.238,0.762,
06:43.892,0.366,-0.238,0.714,
06:43.897,0.317,-0.143,0.762,
06:43.902,0.366,-0.19,0.714,
06:43.907,0.22,-0.19,0.857,
06:43.912,0.171,-0.048,0.81,
06:43.917,0.22,-0.095,0.952,
06:43.922,0.171,-0.048,0.857,
06:43.927,0.268,0.19,1.048,
06:43.932,0.268,0.238,1.095,
06:43.938,0.22,0.238,0.762,
06:43.943,0.122,0.048,1,
06:43.948,0.122,0,0.905,
06:43.953,0.268,0.048,0.952,
06:43.958,0.317,0,0.905,
06:43.963,0.268,-0.143,0.667,
06:43.968,0.22,-0.143,0.571,
06:43.973,0.317,-0.333,0.81,
06:43.978,0.268,-0.19,0.619,
06:43.983,0.122,-0.143,0.524,
06:43.988,0.122,-0.238,0.571,
06:43.994,0.317,-0.286,0.667,
06:43.999,0.268,-0.238,0.714,
06:44.004,0.317,0,0.667,
06:44.009,0.317,0.048,0.762,
06:44.014,0.366,0.095,0.762,
06:44.019,0.22,0.143,0.762,
06:44.024,0.171,0.143,0.667,
06:44.029,0.22,0.381,0.762,
06:44.034,0.171,0.19,0.619,
06:44.039,0.317,0.143,0.762,
06:44.044,0.415,0,0.857,
06:44.050,0.366,-0.19,0.857,
06:44.055,0.317,-0.19,0.714,
06:44.060,0.366,-0.238,0.571,
06:44.065,0.366,-0.238,0.619,
06:44.070,0.317,-0.19,0.714,
06:44.075,0.171,-0.095,0.571,
06:44.080,0.122,-0.048,0.524,
06:44.085,0.171,-0.048,0.667,
06:44.090,0.268,0,0.667,
06:44.095,0.22,-0.095,0.714,
06:44.100,0.317,0,0.571,
06:44.106,0.317,-0.19,0.619,
06:44.111,0.317,-0.095,0.667,
06:44.116,0.415,-0.143,0.571,
06:44.121,0.317,0,0.667,
06:44.126,0.268,0.095,0.571,
06:44.131,0.22,0.048,0.714,
06:44.136,0.366,0.143,0.762,
06:44.141,0.122,0.143,0.762,
06:44.146,0.073,0.143,0.524,
06:44.151,0.073,-0.048,0.714,
06:44.156,0.22,-0.143,0.619,
06:44.162,0.463,-0.333,0.667,
06:44.167,0.366,-0.238,0.762,
06:44.172,0.268,-0.048,0.714,
06:44.177,0.317,-0.095,0.714,
06:44.182,0.317,-0.095,0.619,
06:44.187,0.366,-0.19,0.524,
06:44.192,0.268,0.19,0.619,
06:44.197,0.317,0.048,0.81,
06:44.202,0.171,0.143,0.667,
06:44.207,0.317,0.048,0.619,
06:44.212,0.268,-0.19,0.619,
06:44.218,0.268,-0.048,0.667,
06:44.223,0.268,0,0.762,
06:44.228,0.366,-0.095,0.714,
06:44.233,0.22,-0.19,0.762,
06:44.238,0.317,-0.048,0.667,
06:44.243,0.268,-0.095,0.667,
06:44.248,0.171,0.095,0.667,
06:44.253,0.22,0.048,0.81,
06:44.258,0.317,-0.048,0.762,
06:44.263,0.268,0,0.762,
06:44.269,0.268,-0.143,0.714,
06:44.274,0.268,-0.19,0.667,
06:44.279,0.171,-0.143,0.667,
06:44.284,0.317,-0.143,0.857,
06:44.289,0.171,-0.143,0.762,
06:44.294,0.171,-0.048,0.667,
06:44.299,0.268,-0.048,0.667,
06:44.304,0.268,-0.048,0.81,
06:44.309,0.415,0,0.857,
06:44.314,0.317,0.238,0.857,
06:44.319,0.171,0,0.762,
06:44.325,0.122,0.048,0.714,
06:44.330,0.268,-0.19,0.762,
06:44.335,0.317,-0.095,0.857,
06:44.340,0.22,-0.19,0.714,
06:44.345,0.268,-0.095,0.81,
06:44.350,0.415,-0.095,0.762,
06:44.355,0.366,-0.238,0.81,
06:44.360,0.22,-0.095,0.762,
06:44.365,0.122,0.048,0.714,
06:44.370,0.024,-0.095,0.762,
06:44.375,0.317,0,0.952,
06:44.381,0.366,-0.095,1.095,
06:44.386,0.171,0.238,0.952,
06:44.391,0.317,0.095,1.095,
06:44.396,0.171,-0.048,0.857,
06:44.401,0.268,-0.238,0.762,
06:44.406,0.366,-0.143,0.857,
06:44.411,0.415,-0.143,0.81,
06:44.416,0.22,0.048,0.762,
06:44.421,0.22,-0.095,0.762,
06:44.426,0.171,-0.095,0.857,
06:44.431,0.122,-0.143,0.762,
06:44.437,0.22,-0.095,0.714,
06:44.442,0.171,-0.238,0.667,
06:44.447,0.268,-0.143,0.81,
06:44.452,0.317,-0.143,0.667,
06:44.457,0.317,-0.19,0.81,
06:44.462,0.268,0.048,0.762,
06:44.467,0.22,0.048,0.857,
06:44.472,0.171,0.048,0.857,
06:44.477,0.268,0.143,0.714,
06:44.482,0.268,0.048,0.857,
06:44.487,0.268,0.19,0.905,
06:44.493,0.317,-0.048,0.81,
06:44.498,0.366,-0.095,0.714,
06:44.503,0.268,-0.238,0.667,
06:44.508,0.171,-0.143,0.762,
06:44.513,0.22,-0.19,0.857,
06:44.518,0.171,-0.19,0.81,
06:44.523,0.268,-0.143,0.81,
06:44.528,0.171,-0.143,0.905,
06:44.533,0.171,-0.048,0.714,
06:44.538,0.122,0,0.571,
06:44.543,0.268,-0.143,0.714,
06:44.549,0.415,-0.143,0.81,
06:44.554,0.268,-0.095,0.714,
06:44.559,0.317,-0.143,0.571,
06:44.564,0.22,-0.095,0.476,
06:44.569,0.366,-0.19,0.571,
06:44.574,0.317,-0.143,0.571,
06:44.579,0.171,-0.048,0.667,
06:44.584,0.268,0.19,0.81,
06:44.589,0.171,0.143,0.714,
06:44.594,0.171,0,0.619,
06:44.599,0.22,0,0.762,
06:44.605,0.268,-0.143,0.762,
06:44.610,0.317,-0.143,0.667,
06:44.615,0.366,-0.19,0.857,
06:44.620,0.317,-0.143,0.714,
06:44.625,0.22,-0.19,0.667,
06:44.630,0.22,-0.095,0.524,
06:44.635,0.317,-0.19,0.571,
06:44.640,0.268,-0.238,0.619,
06:44.645,0.366,-0.095,0.714,
06:44.650,0.268,0,0.619,
06:44.655,0.122,-0.095,0.571,
06:44.661,0.122,-0.048,0.571,
06:44.666,0.22,-0.143,0.619,
06:44.671,0.366,0,0.81,
06:44.676,0.366,-0.143,0.619,
06:44.681,0.268,-0.048,0.714,
06:44.686,0.317,0.048,0.524,
06:44.691,0.317,0,0.714,
06:44.696,0.366,0,0.619,
06:44.701,0.122,0.048,0.667,
06:44.706,0.122,0.048,0.667,
06:44.711,0.366,0.19,0.81,
06:44.717,0.268,-0.095,0.762,
06:44.722,0.22,-0.143,0.667,
06:44.727,0.122,-0.238,0.762,
06:44.732,0.22,-0.143,0.619,
06:44.737,0.317,-0.238,0.81,
06:44.742,0.317,-0.143,0.714,
06:44.747,0.268,-0.095,0.571,
06:44.752,0.22,0,0.714,
06:44.757,0.22,-0.048,0.762,
06:44.762,0.317,0.143,0.714,
06:44.767,0.22,0,0.667,
06:44.773,0.317,0,0.762,
06:44.778,0.22,-0.048,0.667,
06:44.783,0.268,-0.048,0.857,
06:44.788,0.366,0,0.762,
06:44.793,0.366,0.048,0.81,
06:44.798,0.22,0.048,0.714,
06:44.803,0.171,0.048,0.762,
06:44.808,0.171,0.048,0.762,
06:44.813,0.171,0,0.762,
06:44.818,0.22,0,0.762,
06:44.824,0.268,0.048,0.857,
06:44.829,0.268,-0.19,0.857,
06:44.834,0.366,-0.286,0.857,
06:44.839,0.268,-0.143,0.952,
06:44.844,0.171,0,0.714,
06:44.849,0.268,-0.143,0.81,
06:44.854,0.268,-0.048,0.714,
06:44.859,0.268,-0.095,0.81,
06:44.864,0.268,0.095,0.952,
06:44.869,0.268,0,0.857,
06:44.874,0.22,0.143,0.905,
06:44.880,0.22,0.048,0.714,
06:44.885,0.268,-0.143,0.857,
06:44.890,0.122,-0.048,0.81,
06:44.895,0.22,-0.095,0.857,
06:44.900,0.366,-0.143,0.905,
06:44.905,0.366,-0.19,0.762,
06:44.910,0.415,0,0.762,
06:44.915,0.122,-0.048,0.81,
06:44.920,0.122,-0.048,0.81,
06:44.925,0.22,-0.095,0.714,
06:44.930,0.268,-0.095,0.762,
06:44.936,0.317,-0.048,0.81,
06:44.941,0.171,-0.19,0.81,
06:44.946,0.171,-0.095,0.857,
06:44.951,0.268,-0.048,1.048,
06:44.956,0.268,-0.143,0.857,
06:44.961,0.22,-0.095,0.81,
06:44.966,0.268,0.048,0.81,
06:44.971,0.317,0.048,0.857,
06:44.976,0.317,0.048,0.857,
06:44.981,0.268,0.048,0.81,
06:44.986,0.171,0.048,0.81,
06:44.992,0.171,-0.048,0.667,
06:44.997,0.317,-0.143,0.714,
06:45.002,0.171,-0.333,0.667,
06:45.007,0.366,-0.238,0.619,
06:45.012,0.268,-0.238,0.714,
06:45.017,0.268,-0.19,0.619,
06:45.022,0.317,-0.19,0.619,
06:45.027,0.171,-0.286,0.524,
06:45.032,0.22,-0.19,0.762,
06:45.037,0.22,0.095,0.762,
06:45.042,0.22,0.238,0.952,
06:45.048,0.366,0.286,0.857,
06:45.053,0.317,-0.048,0.857,
06:45.058,0.268,0.048,0.81,
06:45.063,0.22,-0.048,0.81,
06:45.068,0.317,0,0.667,
06:45.073,0.366,-0.19,0.905,
06:45.078,0.366,-0.048,0.619,
06:45.083,0.22,-0.143,0.571,
06:45.088,0.122,-0.143,0.619,
06:45.093,0.22,-0.143,0.714,
06:45.098,0.268,-0.095,0.762,
06:45.104,0.22,-0.143,0.524,
06:45.109,0.268,-0.143,0.619,
06:45.114,0.22,-0.238,0.524,
06:45.119,0.317,-0.143,0.714,
06:45.124,0.366,-0.095,0.619,
06:45.129,0.317,-0.143,0.619,
06:45.134,0.317,-0.095,0.619,
06:45.139,0.22,0,0.619,
06:45.144,0.268,-0.048,0.762,
06:45.149,0.22,0.048,0.714,
06:45.154,0.22,0.095,0.762,
06:45.160,0.366,0.143,0.81,
06:45.165,0.268,0,0.762,
06:45.170,0.415,0.048,0.762,
06:45.175,0.171,-0.048,0.905,
06:45.180,0.122,0.048,0.714,
06:45.185,0.22,-0.143,0.619,
06:45.190,0.268,-0.143,0.619,
06:45.195,0.268,-0.238,0.667,
06:45.200,0.317,-0.143,0.667,
06:45.205,0.171,-0.095,0.571,
06:45.210,0.22,-0.143,0.762,
06:45.216,0.268,-0.143,0.619,
06:45.221,0.366,-0.095,0.667,
06:45.226,0.22,-0.095,0.619,
06:45.231,0.122,-0.095,0.714,
06:45.236,0.268,-0.143,0.762,
06:45.241,0.366,0.048,0.81,
06:45.246,0.317,0,0.81,
06:45.251,0.171,-0.048,0.714,
06:45.256,0.22,-0.048,0.714,
06:45.261,0.22,-0.095,0.714,
06:45.266,0.317,-0.048,0.714,
06:45.272,0.366,0,0.81,
06:45.277,0.22,-0.048,0.857,
06:45.282,0.366,-0.048,0.857,
06:45.287,0.268,0,0.952,
06:45.292,0.268,0.048,0.81,
06:45.297,0.268,-0.095,0.857,
06:45.302,0.122,-0.048,0.762,
06:45.307,0.122,-0.143,0.619,
06:45.312,0.268,-0.19,0.762,
06:45.317,0.268,-0.238,0.714,
06:45.323,0.317,-0.143,0.762,
06:45.328,0.22,-0.143,0.667,
06:45.333,0.268,-0.19,0.762,
06:45.338,0.268,-0.143,0.81,
06:45.343,0.366,-0.048,0.81,
06:45.348,0.268,0.19,0.857,
06:45.353,0.317,0.048,0.81,
06:45.358,0.268,0.095,0.857,
06:45.363,0.22,0,0.762,
06:45.368,0.268,0.143,0.857,
06:45.373,0.122,0.048,0.762,
06:45.379,0.22,-0.048,0.762,
06:45.384,0.366,-0.095,0.905,
06:45.389,0.366,-0.19,0.81,
06:45.394,0.317,-0.19,0.81,
06:45.399,0.171,-0.143,0.857,
06:45.404,0.268,-0.095,0.714,
06:45.409,0.268,-0.238,0.81,
06:45.414,0.317,-0.143,0.667,
06:45.419,0.268,0,0.619,
06:45.424,0.268,0.048,0.81,
06:45.429,0.268,0.048,0.905,
06:45.435,0.268,0.048,0.857,
06:45.440,0.22,0,0.667,
06:45.445,0.317,-0.095,0.81,
06:45.450,0.22,-0.143,0.667,
06:45.455,0.366,-0.19,0.81,
06:45.460,0.415,-0.095,0.762,
06:45.465,0.366,-0.143,0.762,
06:45.470,0.22,0,0.667,
06:45.475,0.171,-0.095,0.524,
06:45.480,0.171,-0.143,0.667,
06:45.485,0.22,-0.143,0.762,
06:45.491,0.171,0,0.667,
06:45.496,0.366,0,0.762,
06:45.501,0.366,-0.143,0.81,
06:45.506,0.366,-0.143,0.905,
06:45.511,0.22,-0.143,0.81,
06:45.516,0.171,-0.048,0.714,
06:45.521,0.317,-0.095,0.762,
06:45.526,0.22,-0.095,0.762,
06:45.531,0.317,-0.095,0.714,
06:45.536,0.268,0,0.762,
06:45.541,0.317,0.048,0.619,
06:45.547,0.317,0,0.714,
06:45.552,0.268,-0.095,0.571,
06:45.557,0.268,-0.19,0.667,
06:45.562,0.122,-0.19,0.667,
06:45.567,0.317,-0.095,0.667,
06:45.572,0.317,-0.095,0.667,
06:45.577,0.463,-0.095,0.667,
06:45.582,0.415,-0.048,0.714,
06:45.587,0.22,-0.048,0.619,
06:45.592,0.317,-0.048,0.762,
06:45.597,0.122,0.048,0.619,
06:45.603,0.366,-0.095,0.667,
06:45.608,0.366,0.048,0.714,
06:45.613,0.317,-0.095,0.619,
06:45.618,0.317,-0.095,0.619,
06:45.623,0.317,-0.143,0.81,
06:45.628,0.415,-0.095,0.762,
06:45.633,0.366,-0.095,0.714,
06:45.638,0.268,-0.048,0.667,
06:45.643,0.366,-0.048,0.667,
06:45.648,0.366,0,0.762,
06:45.653,0.317,-0.048,0.857,
06:45.659,0.22,0.095,0.81,
06:45.664,0.122,-0.048,0.571,
06:45.669,0.268,-0.143,0.714,
06:45.674,0.366,-0.238,0.714,
06:45.679,0.366,-0.19,0.762,
06:45.684,0.366,-0.095,0.667,
06:45.689,0.366,-0.095,0.476,
06:45.694,0.317,-0.143,0.619,
06:45.699,0.171,-0.238,0.667,
06:45.704,0.317,-0.048,0.857,
06:45.709,0.122,0,0.667,
06:45.715,0.22,0.048,0.667,
06:45.720,0.317,-0.048,0.857,
06:45.725,0.415,-0.19,0.714,
06:45.730,0.415,-0.143,0.714,
06:45.735,0.317,0,0.762,
06:45.740,0.22,-0.095,0.762,
06:45.745,0.317,-0.143,0.857,
06:45.750,0.317,-0.048,0.667,
06:45.755,0.268,0.095,0.667,
06:45.760,0.268,0.143,0.714,
06:45.765,0.268,-0.048,0.667,
06:45.771,0.366,0,0.762,
06:45.776,0.268,-0.095,0.714,
06:45.781,0.171,-0.143,0.667,
06:45.786,0.122,-0.238,0.714,
06:45.791,0.366,-0.19,0.81,
06:45.796,0.463,-0.19,0.714,
06:45.801,0.317,-0.19,0.714,
06:45.806,0.415,0,0.571,
06:45.811,0.22,-0.095,0.762,
06:45.816,0.366,-0.048,0.857,
06:45.822,0.171,0,0.81,
06:45.827,0.171,0.048,0.667,
06:45.832,0.268,0.143,0.952,
06:45.837,0.317,0,0.857,
06:45.842,0.366,-0.048,0.762,
06:45.847,0.366,-0.095,0.952,
06:45.852,0.317,-0.095,0.762,
06:45.857,0.268,-0.048,0.762,
06:45.862,0.268,-0.238,0.667,
06:45.867,0.366,-0.143,0.667,
06:45.872,0.268,-0.048,0.667,
06:45.878,0.317,0,0.714,
06:45.883,0.122,0.048,0.714,
06:45.888,0.366,0.048,0.81,
06:45.893,0.317,-0.048,0.714,
06:45.898,0.268,-0.048,0.714,
06:45.903,0.268,-0.095,0.762,
06:45.908,0.366,-0.143,0.762,
06:45.913,0.366,-0.19,0.762,
06:45.918,0.463,-0.095,0.762,
06:45.923,0.268,-0.095,0.714,
06:45.928,0.22,0.095,0.714,
06:45.934,0.22,0,0.762,
06:45.939,0.22,-0.048,0.81,
06:45.944,0.317,0,0.762,
06:45.949,0.415,0.048,0.905,
06:45.954,0.366,-0.048,0.81,
06:45.959,0.366,-0.19,0.857,
06:45.964,0.268,-0.19,0.905,
06:45.969,0.268,-0.095,0.714,
06:45.974,0.268,-0.143,0.762,
06:45.979,0.268,-0.095,0.619,
06:45.984,0.366,-0.048,0.714,
06:45.990,0.317,-0.048,0.81,
06:45.995,0.268,0,0.857,
06:46.000,0.22,0.048,0.714,
06:46.005,0.22,-0.095,0.571,
06:46.010,0.415,-0.143,0.714,
06:46.015,0.366,-0.143,0.667,
06:46.020,0.317,-0.095,0.714,
06:46.025,0.268,-0.143,0.714,
06:46.030,0.366,-0.143,0.571,
06:46.035,0.366,-0.143,0.714,
06:46.040,0.317,-0.095,0.762,
06:46.046,0.22,0,0.857,
06:46.051,0.122,-0.095,0.762,
06:46.056,0.366,-0.095,0.762,
06:46.061,0.366,-0.048,0.81,
06:46.066,0.317,-0.143,0.714,
06:46.071,0.268,-0.048,0.714,
06:46.076,0.22,-0.095,0.762,
06:46.081,0.317,-0.048,0.762,
06:46.086,0.268,-0.048,0.714,
06:46.091,0.268,-0.048,0.714,
06:46.096,0.317,0,0.667,
06:46.102,0.415,-0.048,0.714,
06:46.107,0.317,-0.048,0.714,
06:46.112,0.317,0,0.714,
06:46.117,0.073,-0.048,0.571,
06:46.122,0.22,-0.095,0.667,
06:46.127,0.268,-0.19,0.762,
06:46.132,0.366,-0.143,0.714,
06:46.137,0.463,-0.143,0.714,
06:46.142,0.317,-0.048,0.714,
06:46.147,0.415,0.048,0.667,
06:46.152,0.22,-0.095,0.714,
06:46.158,0.317,0.095,0.714,
06:46.163,0.22,0,0.762,
06:46.168,0.171,0.048,0.571,
06:46.173,0.22,-0.048,0.667,
06:46.178,0.366,-0.143,0.667,
06:46.183,0.366,-0.238,0.714,
06:46.188,0.415,-0.095,0.857,
06:46.193,0.22,-0.143,0.714,
06:46.198,0.317,-0.095,0.905,
06:46.203,0.366,-0.238,0.714,
06:46.208,0.268,-0.095,0.619,
06:46.214,0.22,0.095,0.714,
06:46.219,0.268,0.143,0.81,
06:46.224,0.317,-0.048,0.714,
06:46.229,0.415,-0.048,0.762,
06:46.234,0.171,-0.095,0.714,
06:46.239,0.22,-0.048,0.667,
06:46.244,0.171,-0.095,0.667,
06:46.249,0.463,-0.19,0.714,
06:46.254,0.366,-0.19,0.81,
06:46.259,0.415,-0.095,0.571,
06:46.264,0.268,0.048,0.667,
06:46.270,0.268,0,0.667,
06:46.275,0.317,-0.048,0.81,
06:46.280,0.22,0.048,0.762,
06:46.285,0.22,0.048,0.619,
06:46.290,0.268,-0.048,0.714,
06:46.295,0.366,-0.143,0.81,
06:46.300,0.415,-0.143,0.81,
06:46.305,0.268,-0.238,0.714,
06:46.310,0.22,-0.19,0.667,
06:46.315,0.317,-0.095,0.762,
06:46.320,0.366,-0.19,0.762,
06:46.326,0.415,-0.19,0.714,
06:46.331,0.366,0.048,0.762,
06:46.336,0.317,0.048,0.762,
06:46.341,0.22,0.095,0.81,
06:46.346,0.268,0.048,0.81,
06:46.351,0.22,0,0.714,
06:46.356,0.22,-0.19,0.857,
06:46.361,0.317,-0.095,0.81,
06:46.366,0.415,-0.286,0.714,
06:46.371,0.415,-0.286,0.762,
06:46.377,0.415,-0.143,0.762,
06:46.382,0.22,-0.19,0.667,
06:46.387,0.268,-0.095,0.714,
06:46.392,0.268,-0.095,0.81,
06:46.397,0.317,0,0.905,
06:46.402,0.268,0.143,0.857,
06:46.407,0.317,0.048,0.81,
06:46.412,0.415,0,0.81,
06:46.417,0.415,-0.143,0.952,
06:46.422,0.317,-0.095,0.952,
06:46.427,0.22,0.095,0.857,
06:46.433,0.366,-0.048,0.762,
06:46.438,0.268,-0.19,0.762,
06:46.443,0.366,-0.143,0.81,
06:46.448,0.268,-0.095,0.762,
06:46.453,0.22,0,0.667,
06:46.458,0.366,-0.095,0.81,
06:46.463,0.268,-0.19,0.762,
06:46.468,0.366,-0.143,0.762,
06:46.473,0.22,-0.143,0.762,
06:46.478,0.366,-0.095,0.714,
06:46.483,0.268,-0.143,0.81,
06:46.489,0.415,-0.095,0.762,
06:46.494,0.366,0,0.857,
06:46.499,0.171,-0.048,0.714,
06:46.504,0.22,-0.048,0.952,
06:46.509,0.171,-0.048,0.762,
06:46.514,0.366,-0.095,0.762,
06:46.519,0.415,-0.095,0.762,
06:46.524,0.415,0,0.857,
06:46.529,0.268,0.095,0.81,
06:46.534,0.317,-0.095,0.857,
06:46.539,0.171,-0.143,0.857,
06:46.545,0.268,0,0.762,
06:46.550,0.171,-0.095,0.762,
06:46.555,0.268,-0.143,0.619,
06:46.560,0.415,-0.19,0.762,
06:46.565,0.366,-0.143,0.714,
06:46.570,0.22,-0.048,0.714,
06:46.575,0.22,0,0.714,
06:46.580,0.22,0,0.667,
06:46.585,0.268,-0.143,0.714,
06:46.590,0.317,-0.048,0.762,
06:46.595,0.366,0.095,0.619,
06:46.601,0.317,-0.048,0.714,
06:46.606,0.463,0,0.619,
06:46.611,0.171,-0.143,0.762,
06:46.616,0.268,-0.048,0.619,
06:46.621,0.268,-0.095,0.667,
06:46.626,0.268,-0.19,0.714,
06:46.631,0.415,-0.143,0.571,
06:46.636,0.366,-0.143,0.714,
06:46.641,0.317,-0.048,0.762,
06:46.646,0.317,0,0.714,
06:46.651,0.268,-0.048,0.81,
06:46.657,0.268,0.048,0.857,
06:46.662,0.366,0.095,0.714,
06:46.667,0.22,0.143,0.714,
06:46.672,0.317,0.095,0.619,
06:46.677,0.268,-0.048,0.714,
06:46.682,0.366,-0.095,0.524,
06:46.687,0.317,-0.143,0.619,
06:46.692,0.171,-0.095,0.476,
06:46.697,0.317,-0.143,0.571,
06:46.702,0.171,-0.286,0.571,
06:46.707,0.317,-0.095,0.571,
06:46.713,0.366,-0.095,0.619,
06:46.718,0.366,-0.095,0.524,
06:46.723,0.415,0,0.667,
06:46.728,0.366,0,0.667,
06:46.733,0.317,0.19,0.714,
06:46.738,0.024,0.095,0.667,
06:46.743,0.122,0.048,0.619,
06:46.748,0.22,0.095,0.619,
06:46.753,0.415,-0.048,0.762,
06:46.758,0.415,-0.095,0.81,
06:46.763,0.366,-0.095,0.714,
06:46.769,0.268,-0.19,0.667,
06:46.774,0.317,-0.238,0.619,
06:46.779,0.366,-0.238,0.667,
06:46.784,0.268,-0.19,0.619,
06:46.789,0.366,-0.048,0.714,
06:46.794,0.317,0.048,0.762,
06:46.799,0.366,0.048,0.762,
06:46.804,0.171,0,0.762,
06:46.809,0.122,0.095,0.619,
06:46.814,0.22,0.095,0.667,
06:46.819,0.122,-0.19,0.762,
06:46.825,0.415,-0.19,0.762,
06:46.830,0.463,-0.143,0.762,
06:46.835,0.463,-0.048,0.619,
06:46.840,0.268,-0.095,0.714,
06:46.845,0.22,0.048,0.619,
06:46.850,0.366,0,0.857,
06:46.855,0.171,-0.048,0.667,
06:46.860,0.22,0,0.81,
06:46.865,0.268,0.048,0.571,
06:46.870,0.415,0,0.81,
06:46.876,0.463,-0.143,0.857,
06:46.881,0.366,-0.143,0.905,
06:46.886,0.171,0,0.857,
06:46.891,0.268,-0.048,0.905,
06:46.896,0.268,-0.048,0.857,
06:46.901,0.268,-0.143,0.667,
06:46.906,0.317,0.095,0.762,
06:46.911,0.366,0.095,0.762,
06:46.916,0.463,-0.048,0.714,
06:46.921,0.415,-0.095,0.857,
06:46.926,0.268,-0.048,0.762,
06:46.932,0.22,-0.048,0.857,
06:46.937,0.122,-0.143,0.81,
06:46.942,0.317,-0.143,0.905,
06:46.947,0.366,-0.143,0.905,
06:46.952,0.463,0,0.81,
06:46.957,0.268,-0.048,0.952,
06:46.962,0.268,0,0.81,
06:46.967,0.317,-0.048,1.048,
06:46.972,0.366,0,0.905,
06:46.977,0.268,0,0.857,
06:46.982,0.22,0.048,0.857,
06:46.988,0.317,-0.095,0.952,
06:46.993,0.415,-0.048,0.857,
06:46.998,0.366,-0.143,0.905,
06:47.003,0.22,-0.143,0.762,
06:47.008,0.268,0,0.81,
06:47.013,0.268,-0.238,0.857,
06:47.018,0.415,-0.19,0.762,
06:47.023,0.366,-0.095,0.905,
06:47.028,0.171,-0.095,0.762,
06:47.033,0.22,0.048,0.81,
06:47.038,0.171,0,0.905,
06:47.044,0.22,0.095,0.81,
06:47.049,0.122,-0.048,0.857,
06:47.054,0.073,-0.048,0.762,
06:47.059,0.268,-0.095,0.714,
06:47.064,0.268,-0.19,0.714,
06:47.069,0.463,-0.095,0.714,
06:47.074,0.317,-0.238,0.524,
06:47.079,0.171,-0.19,0.429,
06:47.084,0.171,-0.238,0.762,
06:47.089,0.22,-0.19,0.81,
06:47.094,0.366,0.048,0.81,
06:47.100,0.22,0.048,0.714,
06:47.105,0.171,0,0.81,
06:47.110,0.171,-0.095,0.667,
06:47.115,0.366,-0.143,0.905,
06:47.120,0.073,0,0.857,
06:47.125,0.268,0.143,0.762,
06:47.130,0.122,-0.095,0.714,
06:47.135,0.268,-0.048,0.476,
06:47.140,0.268,-0.19,0.667,
06:47.145,0.317,0,0.524,
06:47.150,0.268,-0.095,0.619,
06:47.156,0.171,-0.143,0.571,
06:47.161,0.22,-0.19,0.524,
06:47.166,0.122,-0.286,0.762,
06:47.171,0.22,-0.19,0.667,
06:47.176,0.268,0,0.571,
06:47.181,0.268,-0.143,0.619,
06:47.186,0.415,-0.095,0.714,
06:47.191,0.22,0.095,0.714,
06:47.196,0.268,0.095,0.714,
06:47.201,0.122,0.143,0.667,
06:47.206,0.22,0.143,0.762,
06:47.212,0.317,0.095,0.714,
06:47.217,0.366,0.048,0.714,
06:47.222,0.268,0.048,0.762,
06:47.227,0.268,-0.048,0.667,
06:47.232,0.415,-0.19,0.619,
06:47.237,0.317,-0.19,0.714,
06:47.242,0.317,0,0.667,
06:47.247,0.122,-0.19,0.667,
06:47.252,0.268,0,0.81,
06:47.257,0.317,-0.048,0.81,
06:47.262,0.317,0,0.714,
06:47.268,0.171,0.095,0.714,
06:47.273,0.122,0.048,0.714,
06:47.278,0.171,-0.048,0.81,
06:47.283,0.22,-0.048,0.857,
06:47.288,0.366,-0.095,0.81,
06:47.293,0.415,0.095,0.762,
06:47.298,0.366,0,0.571,
06:47.303,0.366,-0.095,0.762,
06:47.308,0.268,-0.048,0.619,
06:47.313,0.268,0,0.905,
06:47.318,0.22,0.143,0.81,
06:47.324,0.171,0.143,0.857,
06:47.329,0.171,-0.095,0.762,
06:47.334,0.366,-0.143,0.714,
06:47.339,0.22,0.095,1,
06:47.344,0.268,0.048,0.857,
06:47.349,0.317,0.095,1.19,
06:47.354,0.268,-0.048,1.048,
06:47.359,0.268,0.143,1.143,
06:47.364,0.22,-0.048,0.905,
06:47.369,0.268,0.095,1,
06:47.374,0.317,0,1,
06:47.380,0.366,-0.143,0.905,
06:47.385,0.317,0,0.952,
06:47.390,0.171,0.048,1.048,
06:47.395,0.171,-0.095,0.952,
06:47.400,0.268,-0.286,1.048,
06:47.405,0.366,-0.238,1.048,
06:47.410,0.268,-0.143,1.19,
06:47.415,0.317,0.048,1.048,
06:47.420,0.22,0.048,1.238,
06:47.425,0.317,-0.143,1.238,
06:47.431,0.463,0.19,1.143,
06:47.436,0.317,0.429,1.19,
06:47.441,-0.024,0,1.048,
06:47.446,0.22,-0.143,1.048,
06:47.451,0.317,-0.143,1.048,
06:47.456,0.366,-0.095,1,
06:47.461,0.317,-0.19,0.952,
06:47.466,0.22,-0.286,1.048,
06:47.471,0.268,-0.19,0.952,
06:47.476,0.317,-0.19,1.048,
06:47.481,0.122,-0.238,0.81,
06:47.487,0.122,-0.143,1,
06:47.492,0.073,-0.143,0.81,
06:47.497,0.415,0.048,0.952,
06:47.502,0.268,0,1.095,
06:47.507,0.268,0.095,0.762,
06:47.512,0.024,0.143,0.81,
06:47.517,0.366,0.238,0.714,
06:47.522,0.268,0.19,0.857,
06:47.527,0.317,-0.143,0.905,
06:47.532,0.463,0.143,0.857,
06:47.537,0.366,0.238,0.714,
06:47.543,0.366,0.19,0.571,
06:47.548,0.22,-0.095,0.667,
06:47.553,0.268,-0.238,0.476,
06:47.558,0.366,-0.143,0.524,
06:47.563,0.317,-0.095,0.238,
06:47.568,0.171,-0.286,0.286,
06:47.573,0.268,-0.19,0.381,
06:47.578,0.317,-0.095,0.238,
06:47.583,0.22,-0.238,0.19,
06:47.588,0.171,-0.238,0.238,
06:47.593,0.366,-0.19,0.238,
06:47.599,0.415,-0.19,0.333,
06:47.604,0.366,-0.19,0.286,
06:47.609,0.268,-0.143,0.381,
06:47.614,0.366,0,0.286,
06:47.619,0.22,-0.095,0.476,
06:47.624,0.317,0,0.238,
06:47.629,0.22,0,0.381,
06:47.634,0.268,-0.048,0.381,
06:47.639,0.317,0.048,0.429,
06:47.644,0.268,0.095,0.524,
06:47.649,0.268,0.19,0.429,
06:47.655,0.22,0.19,0.524,
06:47.660,0.268,0.143,0.429,
06:47.665,0.268,-0.048,0.524,
06:47.670,0.366,-0.048,0.429,
06:47.675,0.268,-0.143,0.429,
06:47.680,0.317,0.143,0.381,
06:47.685,0.366,0.048,0.429,
06:47.690,0.22,-0.238,0.524,
06:47.695,0.415,-0.19,0.381,
06:47.700,0.366,-0.095,0.429,
06:47.705,0.22,-0.19,0.286,
06:47.711,0.268,-0.048,0.476,
06:47.716,0.22,-0.238,0.476,
06:47.721,0.268,-0.095,0.333,
06:47.726,0.366,-0.095,0.476,
06:47.731,0.22,-0.143,0.476,
06:47.736,0.317,0,0.571,
06:47.741,0.366,0.048,0.619,
06:47.746,0.317,0.143,0.667,
06:47.751,0.122,0.095,0.714,
06:47.756,0.22,0.19,0.667,
06:47.761,0.268,0.286,0.667,
06:47.767,0.415,0.143,0.619,
06:47.772,0.268,0.048,0.619,
06:47.777,0.268,0,0.524,
06:47.782,0.22,-0.095,0.667,
06:47.787,0.317,-0.19,0.571,
06:47.792,0.317,-0.19,0.619,
06:47.797,0.268,-0.143,0.667,
06:47.802,0.268,-0.143,0.619,
06:47.807,0.268,-0.143,0.952,
06:47.812,0.366,0.048,1.048,
06:47.817,0.073,-0.143,1,
06:47.823,0.268,0.238,1,
06:47.828,0.317,0.19,1.333,
06:47.833,0.22,0.143,0.667,
06:47.838,0.268,0,1.048,
06:47.843,0.171,0.048,1.143,
06:47.848,0.317,0.095,1.048,
06:47.853,0.317,-0.143,1.286,
06:47.858,0.268,0.095,0.81,
06:47.863,0.122,0.048,1.048,
06:47.868,0.22,-0.19,0.952,
06:47.873,0.22,-0.143,1.048,
06:47.879,0.171,-0.143,1,
06:47.884,0.317,-0.048,1.048,
06:47.889,0.22,-0.095,1.048,
06:47.894,0.171,0.143,1.143,
06:47.899,0.268,0.19,1.19,
06:47.904,0.024,-0.048,1.095,
06:47.909,0.463,0.238,1.286,
06:47.914,0.171,-0.095,1.238,
06:47.919,0.268,-0.095,1.095,
06:47.924,0.122,-0.238,1.048,
06:47.930,0.366,0.048,1.048,
06:47.935,0.22,-0.048,1.286,
06:47.940,0.268,0,1.286,
06:47.945,0.024,0.048,1.286,
06:47.950,0.22,0.095,1.143,
06:47.955,0.268,0.095,1.238,
06:47.960,0.171,0.048,1.048,
06:47.965,0.268,-0.048,0.857,
06:47.970,0.171,-0.095,0.952,
06:47.975,0.22,-0.095,0.905,
06:47.980,0.317,-0.048,0.952,
06:47.986,0.171,-0.048,0.81,
06:47.991,0.073,-0.048,0.81,
06:47.996,0.268,-0.048,0.667,
06:48.001,0.317,-0.095,0.81,
06:48.006,0.366,-0.048,0.81,
06:48.011,0.317,-0.095,0.762,
06:48.016,0.22,0,0.81,
06:48.021,0.268,0,0.81,
06:48.026,0.268,0,0.857,
06:48.031,0.22,0.19,0.714,
06:48.036,0.171,0.19,0.619,
06:48.042,0.22,0.238,0.714,
06:48.047,0.317,0.143,0.619,
06:48.052,0.268,-0.048,0.857,
06:48.057,0.268,-0.143,0.762,
06:48.062,0.22,-0.048,0.81,
06:48.067,0.415,-0.095,0.667,
06:48.072,0.366,-0.095,0.524,
06:48.077,0.366,-0.238,0.429,
06:48.082,0.317,-0.143,0.286,
06:48.087,0.22,0,0.381,
06:48.092,0.073,-0.143,0.286,
06:48.098,0.268,-0.143,0.381,
06:48.103,0.22,-0.143,0.429,
06:48.108,0.366,-0.048,0.476,
06:48.113,0.268,-0.048,0.429,
06:48.118,0.317,-0.143,0.429,
06:48.123,0.366,-0.048,0.524,
06:48.128,0.415,-0.143,0.524,
06:48.133,0.268,-0.095,0.429,
06:48.138,0.22,-0.048,0.381,
06:48.143,0.317,0,0.429,
06:48.148,0.317,0,0.524,
06:48.154,0.317,0.048,0.571,
06:48.159,0.317,0.19,0.476,
06:48.164,0.366,0.048,0.476,
06:48.169,0.317,-0.19,0.429,
06:48.174,0.317,-0.19,0.476,
06:48.179,0.268,-0.095,0.476,
06:48.184,0.317,-0.048,0.619,
06:48.189,0.317,-0.095,0.381,
06:48.194,0.415,-0.143,0.476,
06:48.199,0.22,-0.143,0.381,
06:48.204,0.366,-0.048,0.429,
06:48.210,0.22,0.048,0.476,
06:48.215,0.415,0.048,0.524,
06:48.220,0.268,-0.19,0.571,
06:48.225,0.268,-0.048,0.619,
06:48.230,0.366,0.095,0.571,
06:48.235,0.317,0,0.571,
06:48.240,0.317,0,0.524,
06:48.245,0.366,0.048,0.524,
06:48.250,0.268,0,0.429,
06:48.255,0.268,0.048,0.476,
06:48.260,0.171,-0.095,0.619,
06:48.266,0.317,-0.095,0.714,
06:48.271,0.317,-0.048,0.762,
06:48.276,0.317,0.048,0.667,
06:48.281,0.317,0,0.667,
06:48.286,0.317,-0.143,0.667,
06:48.291,0.317,-0.143,0.762,
06:48.296,0.366,0.048,0.81,
06:48.301,0.268,0.19,0.762,
06:48.306,0.171,-0.095,0.762,
06:48.311,0.317,0,0.762,
06:48.316,0.366,-0.048,0.714,
06:48.322,0.317,-0.095,0.714,
06:48.327,0.024,-0.095,0.762,
06:48.332,0.268,0,0.81,
06:48.337,0.22,-0.238,0.667,
06:48.342,0.22,-0.19,0.857,
06:48.347,0.22,0.048,0.857,
06:48.352,0.268,0.048,0.81,
06:48.357,0.268,0.048,0.81,
06:48.362,0.317,-0.095,0.952,
06:48.367,0.22,0.048,1.095,
06:48.372,0.171,0.048,1.048,
06:48.378,0.268,0.143,1.048,
06:48.383,0.317,0.095,1.048,
06:48.388,0.268,-0.19,1,
06:48.393,0.268,-0.143,0.905,
06:48.398,0.317,0.095,0.952,
06:48.403,0.463,0,0.952,
06:48.408,0.122,-0.095,1,
06:48.413,0.22,-0.048,1.143,
06:48.418,0.22,0.095,0.905,
06:48.423,0.171,-0.095,0.952,
06:48.428,0.22,-0.19,1,
06:48.434,0.268,-0.095,0.952,
06:48.439,0.317,-0.048,1.095,
06:48.444,0.22,0.048,1,
06:48.449,0.122,0.048,0.905,
06:48.454,0.073,0,1,
06:48.459,0.317,-0.143,0.905,
06:48.464,0.22,-0.143,0.952,
06:48.469,0.366,-0.095,1,
06:48.474,0.366,-0.048,0.905,
06:48.479,0.317,-0.095,0.857,
06:48.485,0.317,-0.048,0.905,
06:48.490,0.171,-0.048,0.857,
06:48.495,0.024,-0.048,0.81,
06:48.500,0.122,0.143,1.048,
06:48.505,0.317,0.048,1.048,
06:48.510,0.22,0,0.81,
06:48.515,0.415,-0.048,0.81,
06:48.520,0.268,-0.095,0.714,
06:48.525,0.317,-0.143,0.857,
06:48.530,0.463,-0.143,0.905,
06:48.535,0.317,0,0.81,
06:48.541,0.268,0,0.762,
06:48.546,0.122,0.143,0.714,
06:48.551,0.22,0.048,0.524,
06:48.556,0.317,0.048,0.667,
06:48.561,0.22,-0.048,0.476,
06:48.566,0.317,-0.048,0.619,
06:48.571,0.22,-0.048,0.619,
06:48.576,0.22,-0.048,0.524,
06:48.581,0.268,-0.048,0.571,
06:48.586,0.317,-0.143,0.571,
06:48.591,0.317,0,0.476,
06:48.597,0.317,-0.19,0.619,
06:48.602,0.415,-0.143,0.571,
06:48.607,0.317,-0.048,0.762,
06:48.612,0.366,0,0.714,
06:48.617,0.22,0.095,0.571,
06:48.622,0.366,0,0.571,
06:48.627,0.268,-0.095,0.571,
06:48.632,0.317,-0.095,0.524,
06:48.637,0.268,-0.048,0.524,
06:48.642,0.22,-0.048,0.476,
06:48.647,0.22,-0.19,0.571,
06:48.653,0.366,-0.048,0.667,
06:48.658,0.366,-0.048,0.667,
06:48.663,0.22,0,0.619,
06:48.668,0.22,-0.095,0.524,
06:48.673,0.317,-0.048,0.476,
06:48.678,0.268,-0.048,0.571,
06:48.683,0.171,-0.048,0.476,
06:48.688,0.268,-0.048,0.476,
06:48.693,0.268,-0.143,0.524,
06:48.698,0.317,-0.19,0.571,
06:48.703,0.415,-0.095,0.524,
06:48.709,0.22,-0.19,0.429,
06:48.714,0.317,-0.048,0.476,
06:48.719,0.317,-0.095,0.476,
06:48.724,0.268,-0.143,0.667,
06:48.729,0.317,-0.048,0.667,
06:48.734,0.22,0,0.714,
06:48.739,0.268,0.095,0.714,
06:48.744,0.268,0,0.667,
06:48.749,0.317,-0.143,0.619,
06:48.754,0.366,0.048,0.667,
06:48.759,0.22,0,0.619,
06:48.765,0.268,-0.048,0.762,
06:48.770,0.317,-0.095,0.714,
06:48.775,0.415,0.095,0.81,
06:48.780,0.171,0,0.571,
06:48.785,0.171,-0.048,0.571,
06:48.790,0.171,-0.143,0.429,
06:48.795,0.366,-0.19,0.619,
06:48.800,0.268,-0.19,0.571,
06:48.805,0.366,-0.048,0.762,
06:48.810,0.171,-0.048,0.81,
06:48.815,0.268,0,0.81,
06:48.821,0.268,0,0.857,
06:48.826,0.22,0,0.762,
06:48.831,0.171,0,0.714,
06:48.836,0.317,-0.095,0.857,
06:48.841,0.415,-0.095,0.857,
06:48.846,0.366,-0.143,0.905,
06:48.851,0.22,0,0.952,
06:48.856,0.268,0,0.905,
06:48.861,0.171,-0.19,0.81,
06:48.866,0.22,-0.19,0.762,
06:48.871,0.317,-0.143,0.857,
06:48.877,0.22,0,0.905,
06:48.882,0.268,-0.19,0.905,
06:48.887,0.268,-0.095,1,
06:48.892,0.366,-0.143,0.905,
06:48.897,0.22,-0.048,0.952,
06:48.902,0.22,-0.048,0.81,
06:48.907,0.171,0.048,0.952,
06:48.912,0.268,0.143,1.095,
06:48.917,0.22,0.048,1,
06:48.922,0.268,0.048,0.952,
06:48.927,0.073,-0.143,0.857,
06:48.933,0.268,-0.19,0.905,
06:48.938,0.415,-0.095,1.095,
06:48.943,0.317,-0.19,0.857,
06:48.948,0.317,-0.143,0.857,
06:48.953,0.073,-0.19,0.714,
06:48.958,0.22,-0.143,0.905,
06:48.963,0.268,-0.19,0.905,
06:48.968,0.171,-0.095,0.857,
06:48.973,0.024,0.095,0.952,
06:48.978,0.171,0.238,0.952,
06:48.984,0.366,-0.095,0.905,
06:48.989,0.366,-0.19,0.905,
06:48.994,0.366,0.048,0.952,
06:48.999,0.268,-0.048,0.952,
06:49.004,0.268,0.095,1.048,
06:49.009,0.317,-0.048,0.952,
06:49.014,0.171,-0.048,0.667,
06:49.019,0.22,-0.048,0.762,
06:49.024,0.268,0.048,0.762,
06:49.029,0.268,-0.143,0.667,
06:49.034,0.22,-0.238,0.714,
06:49.040,0.268,-0.19,0.571,
06:49.045,0.171,-0.048,0.762,
06:49.050,0.171,-0.095,0.714,
06:49.055,0.268,-0.19,0.714,
06:49.060,0.366,-0.095,0.762,
06:49.065,0.366,0.048,0.619,
06:49.070,0.268,0.048,0.762,
06:49.075,0.268,0.095,0.619,
06:49.080,0.268,0,0.762,
06:49.085,0.366,0.143,0.762,
06:49.090,0.268,0.143,0.81,
06:49.096,0.22,0.095,0.667,
06:49.101,0.122,-0.143,0.429,
06:49.106,0.317,-0.143,0.571,
06:49.111,0.366,-0.143,0.667,
06:49.116,0.317,-0.095,0.524,
06:49.121,0.22,-0.143,0.714,
06:49.126,0.268,-0.095,0.619,
06:49.131,0.415,0,0.857,
06:49.136,0.22,-0.095,0.667,
06:49.141,0.317,0.095,0.571,
06:49.146,0.268,0,0.524,
06:49.152,0.317,-0.143,0.667,
06:49.157,0.366,-0.095,0.762,
06:49.162,0.366,0.048,0.667,
06:49.167,0.22,0.048,0.667,
06:49.172,0.317,-0.095,0.571,
06:49.177,0.22,-0.048,0.571,
06:49.182,0.415,-0.048,0.571,
06:49.187,0.268,-0.143,0.667,
06:49.192,0.268,-0.143,0.524,
06:49.197,0.268,-0.143,0.619,
06:49.202,0.22,-0.19,0.571,
06:49.208,0.22,0,0.667,
06:49.213,0.268,0,0.667,
06:49.218,0.22,-0.143,0.619,
06:49.223,0.317,-0.143,0.667,
06:49.228,0.463,-0.095,0.667,
06:49.233,0.268,-0.048,0.571,
06:49.238,0.317,0.095,0.667,
06:49.243,0.22,0.095,0.952,
06:49.248,0.415,0.095,0.81,
06:49.253,0.22,-0.143,0.714,
